"Time (s)","Acceleration x (m/s^2)","Acceleration y (m/s^2)","Acceleration z (m/s^2)"
8.917846000E-3,-1.218648672E0,8.968679428E0,4.094084740E0
1.124292300E-2,-1.201889277E0,8.918401718E0,4.050989151E0
1.296438500E-2,-1.122880578E0,8.971074104E0,3.986345768E0
1.538711500E-2,-1.074996591E0,9.069235802E0,3.763684988E0
1.713230800E-2,-1.077390790E0,9.100360870E0,3.390189648E0
1.950473100E-2,-1.027112484E0,9.102754593E0,3.134010077E0
2.131553800E-2,-9.074024558E-1,9.124302864E0,3.172317266E0
2.375015400E-2,-8.379706144E-1,9.129091263E0,3.327940464E0
2.527173100E-2,-9.097966552E-1,9.114726067E0,3.349488258E0
2.771750000E-2,-1.060631394E0,9.165003777E0,3.210624456E0
2.937565400E-2,-1.163581967E0,9.253589630E0,3.086126089E0
3.180003800E-2,-1.154005170E0,9.260771751E0,3.145981073E0
3.349476900E-2,-1.051054597E0,9.143456459E0,3.363853455E0
3.588976900E-2,-9.217676520E-1,9.030928612E0,3.636792421E0
3.754976900E-2,-8.547300100E-1,9.016563416E0,3.830722809E0
4.005203800E-2,-9.097966552E-1,9.030928612E0,3.861847401E0
4.185230800E-2,-1.029506683E0,9.014169693E0,3.804386616E0
4.395773100E-2,-1.077390790E0,8.992621422E0,3.830722809E0
4.565719200E-2,-1.017535686E0,8.983044624E0,4.007893562E0
4.833446100E-2,-9.313444495E-1,8.968679428E0,4.182670593E0
4.969523100E-2,-9.337386489E-1,8.918401718E0,4.168305397E0
5.260288400E-2,-1.041477680E0,8.918401718E0,3.883395195E0
5.381073100E-2,-1.055842996E0,8.987833023E0,3.773261786E0
5.675069200E-2,-1.031900883E0,9.016563416E0,3.780444384E0
5.789503800E-2,-1.007958889E0,8.997409821E0,3.782838583E0
6.086284400E-2,-1.019929886E0,9.023746490E0,3.684676409E0
6.216053800E-2,-1.053448796E0,9.117119789E0,3.493140221E0
6.495323100E-2,-1.091755986E0,9.196128845E0,3.306392431E0
6.613034600E-2,-1.106121182E0,9.176975250E0,3.210624456E0
6.906684400E-2,-1.039083481E0,9.114726067E0,3.246537447E0
7.028157700E-2,-9.097966552E-1,9.088389397E0,3.356670856E0
7.316819000E-2,-8.331822157E-1,9.102754593E0,3.435679436E0
7.433850000E-2,-8.619126081E-1,9.112331390E0,3.418920040E0
7.724534600E-2,-9.313444495E-1,9.121908188E0,3.366247654E0
7.851507700E-2,-9.624691010E-1,9.121908188E0,3.392583847E0
8.137380600E-2,-9.409212470E-1,9.093177795E0,3.533841610E0
8.292096100E-2,-8.978256583E-1,9.033323288E0,3.703830004E0
8.518084600E-2,-8.882488012E-1,8.997409821E0,3.778050184E0
8.659688400E-2,-9.361328483E-1,9.014169693E0,3.751713991E0
8.926719200E-2,-9.864110947E-1,9.042900085E0,3.725377798E0
9.071007700E-2,-1.007958889E0,9.028534889E0,3.790021181E0
9.310192300E-2,-9.792284966E-1,8.968679428E0,3.938461781E0
9.479823100E-2,-9.145850539E-1,8.918401718E0,4.065354347E0
9.719157700E-2,-8.690952063E-1,8.908824921E0,4.079719543E0
9.892142300E-2,-8.786720037E-1,8.923190117E0,4.007893562E0
1.016364230E-1,-9.433154464E-1,8.939949036E0,3.900154591E0
1.031784230E-1,-9.696516991E-1,8.942343712E0,3.900154591E0
1.054239230E-1,-9.768342972E-1,8.944737434E0,3.926490784E0
1.071060000E-1,-9.888052940E-1,8.961497307E0,3.904942989E0
1.095706920E-1,-1.024718285E0,9.002198219E0,3.809175014E0
1.112168080E-1,-1.063025594E0,9.057265282E0,3.679888010E0
1.136114610E-1,-1.084573388E0,9.097966194E0,3.600879431E0
1.153939610E-1,-1.084573388E0,9.081207275E0,3.627215624E0
1.180624610E-1,-1.055842996E0,9.045293808E0,3.696647406E0
1.194200000E-1,-1.019929886E0,9.047688484E0,3.715801001E0
1.218180770E-1,-9.911994934E-1,9.081207275E0,3.651157618E0
1.237395000E-1,-9.648633003E-1,9.124302864E0,3.567360640E0
1.259613460E-1,-9.385270476E-1,9.129091263E0,3.552995205E0
1.276052310E-1,-8.882488012E-1,9.093177795E0,3.596091032E0
1.303406150E-1,-8.212111592E-1,9.066842079E0,3.646369219E0
1.315943840E-1,-8.020575643E-1,9.052476883E0,3.665522814E0
1.345167670E-1,-8.236053586E-1,9.064447403E0,3.634398222E0
1.357309230E-1,-8.738836050E-1,9.097966194E0,3.591302633E0
1.386188050E-1,-9.361328483E-1,9.124302864E0,3.572149038E0
1.398003460E-1,-9.864110947E-1,9.124302864E0,3.603273630E0
1.427205360E-1,-1.012747288E0,9.107542992E0,3.660734415E0
1.441185000E-1,-1.015141487E0,9.085995674E0,3.689464808E0
1.467774210E-1,-1.005564690E0,9.069235802E0,3.665522814E0
1.479321540E-1,-9.744400978E-1,9.057265282E0,3.627215624E0
1.508449210E-1,-9.361328483E-1,9.030928612E0,3.651157618E0
1.522308840E-1,-9.097966552E-1,8.995016098E0,3.737348795E0
1.549474210E-1,-9.026140571E-1,8.961497307E0,3.811569214E0
1.563137690E-1,-9.241618514E-1,8.966285706E0,3.816357613E0
1.590483440E-1,-9.888052940E-1,9.018958092E0,3.761290789E0
1.602550000E-1,-1.017535686E0,9.028534889E0,3.725377798E0
1.631503820E-1,-1.019929886E0,9.023746490E0,3.708618402E0
1.644958460E-1,-1.015141487E0,9.011775017E0,3.711012602E0
1.669929230E-1,-1.005564690E0,9.006986618E0,3.703830004E0
1.684638840E-1,-1.000776291E0,9.028534889E0,3.679888010E0
1.710531920E-1,-9.959878922E-1,9.059659004E0,3.612850428E0
1.725253460E-1,-9.888052940E-1,9.078812599E0,3.545812607E0
1.748238840E-1,-9.576807022E-1,9.085995674E0,3.521870613E0
1.765643840E-1,-9.289502501E-1,9.074024200E0,3.541024208E0
1.789210770E-1,-9.265560508E-1,9.062053680E0,3.548206806E0
1.806430000E-1,-9.361328483E-1,9.069235802E0,3.497928619E0
1.832673840E-1,-9.504981041E-1,9.090784073E0,3.445256233E0
1.850039610E-1,-9.648633003E-1,9.102754593E0,3.442862034E0
1.872906920E-1,-9.744400978E-1,9.095572472E0,3.478775024E0
1.888065770E-1,-9.840168953E-1,9.088389397E0,3.524264812E0
1.912605380E-1,-9.983820915E-1,9.090784073E0,3.555389643E0
1.929191920E-1,-1.012747288E0,9.090784073E0,3.574543238E0
1.952513460E-1,-1.022324085E0,9.078812599E0,3.608062029E0
1.971656150E-1,-1.022324085E0,9.054870605E0,3.648763418E0
1.993980000E-1,-1.015141487E0,9.040505409E0,3.699041605E0
2.011318840E-1,-1.012747288E0,9.016563416E0,3.770867586E0
2.035388070E-1,-1.012747288E0,8.990227699E0,3.830722809E0
2.053926920E-1,-1.015141487E0,8.978256226E0,3.857059002E0
2.075919610E-1,-1.022324085E0,8.978256226E0,3.854664803E0
2.092735380E-1,-1.005564690E0,8.978256226E0,3.864241600E0
2.118713070E-1,-9.935936928E-1,8.973467827E0,3.902548790E0
2.133731920E-1,-9.888052940E-1,8.959102631E0,3.916913986E0
2.162038050E-1,-9.959878922E-1,8.966285706E0,3.885789394E0
2.177437690E-1,-1.024718285E0,8.992621422E0,3.842693806E0
2.203064590E-1,-1.039083481E0,9.009381294E0,3.801992416E0
2.216298070E-1,-1.027112484E0,9.018958092E0,3.778050184E0
2.244086510E-1,-1.000776291E0,9.023746490E0,3.749319792E0
2.257891920E-1,-9.648633003E-1,9.023746490E0,3.730166197E0
2.284590740E-1,-9.433154464E-1,9.021351814E0,3.718195200E0
2.296234230E-1,-9.361328483E-1,9.016563416E0,3.691859007E0
2.325259970E-1,-9.121908545E-1,9.030928612E0,3.667917013E0
2.338656920E-1,-9.074024558E-1,9.052476883E0,3.663128614E0
2.366276900E-1,-9.121908545E-1,9.062053680E0,3.663128614E0
2.378319610E-1,-9.313444495E-1,9.064447403E0,3.660734415E0
2.407246150E-1,-9.576807022E-1,9.066842079E0,3.646369219E0
2.419284230E-1,-9.744400978E-1,9.069235802E0,3.632004023E0
2.448297660E-1,-9.768342972E-1,9.069235802E0,3.648763418E0
2.461756150E-1,-9.600749016E-1,9.059659004E0,3.679888010E0
2.486464610E-1,-9.337386489E-1,9.045293808E0,3.689464808E0
2.501131920E-1,-9.217676520E-1,9.045293808E0,3.706224203E0
2.527168460E-1,-9.193734527E-1,9.030928612E0,3.718195200E0
2.541263070E-1,-9.241618514E-1,9.023746490E0,3.727771997E0
2.565109230E-1,-9.241618514E-1,9.030928612E0,3.734954596E0
2.582785380E-1,-9.289502501E-1,9.030928612E0,3.725377798E0
2.606365000E-1,-9.265560508E-1,9.038111687E0,3.722983599E0
2.623471920E-1,-9.361328483E-1,9.030928612E0,3.720589399E0
2.648345380E-1,-9.576807022E-1,9.018958092E0,3.703830004E0
2.668595770E-1,-9.672574997E-1,9.026140213E0,3.687070608E0
2.689211150E-1,-9.648633003E-1,9.040505409E0,3.675099611E0
2.707671540E-1,-9.528923035E-1,9.050082207E0,3.660734415E0
2.729522300E-1,-9.433154464E-1,9.054870605E0,3.634398222E0
2.745962690E-1,-9.289502501E-1,9.062053680E0,3.596091032E0
2.769290000E-1,-9.241618514E-1,9.078812599E0,3.550601006E0
2.786391150E-1,-9.241618514E-1,9.071630478E0,3.550601006E0
2.810475770E-1,-9.265560508E-1,9.071630478E0,3.555389643E0
2.827619610E-1,-9.217676520E-1,9.081207275E0,3.562572241E0
2.851735770E-1,-9.241618514E-1,9.090784073E0,3.567360640E0
2.870547690E-1,-9.504981041E-1,9.081207275E0,3.564966440E0
2.892474230E-1,-9.768342972E-1,9.074024200E0,3.581725836E0
2.908598460E-1,-9.959878922E-1,9.071630478E0,3.612850428E0
2.935457300E-1,-9.935936928E-1,9.069235802E0,3.639186621E0
2.949547300E-1,-9.888052940E-1,9.059659004E0,3.675099611E0
2.978751510E-1,-1.000776291E0,9.040505409E0,3.701435804E0
2.991416150E-1,-1.015141487E0,9.028534889E0,3.706224203E0
3.019769200E-1,-1.024718285E0,9.040505409E0,3.722983599E0
3.031450380E-1,-1.022324085E0,9.038111687E0,3.756502390E0
3.060784200E-1,-1.019929886E0,9.021351814E0,3.780444384E0
3.074601540E-1,-1.017535686E0,9.016563416E0,3.775655985E0
3.101068840E-1,-1.010353088E0,9.021351814E0,3.754108191E0
3.112650000E-1,-1.003170490E0,9.028534889E0,3.744531393E0
3.141753460E-1,-9.935936928E-1,9.021351814E0,3.739742994E0
3.153848070E-1,-1.003170490E0,9.018958092E0,3.718195200E0
3.182976510E-1,-1.015141487E0,9.028534889E0,3.687070608E0
3.194703460E-1,-1.005564690E0,9.040505409E0,3.670311213E0
3.223994200E-1,-9.864110947E-1,9.052476883E0,3.658340216E0
3.235835000E-1,-9.864110947E-1,9.050082207E0,3.643975019E0
3.265008820E-1,-9.816226959E-1,9.038111687E0,3.636792421E0
3.281240770E-1,-9.840168953E-1,9.045293808E0,3.641580820E0
3.303573070E-1,-9.911994934E-1,9.047688484E0,3.653551817E0
3.317298070E-1,-1.007958889E0,9.050082207E0,3.670311213E0
3.343920770E-1,-1.010353088E0,9.050082207E0,3.682282209E0
3.358158840E-1,-1.012747288E0,9.040505409E0,3.691859007E0
3.381633070E-1,-1.007958889E0,9.038111687E0,3.708618402E0
3.399080770E-1,-9.959878922E-1,9.038111687E0,3.739742994E0
3.422714610E-1,-9.768342972E-1,9.021351814E0,3.761290789E0
3.439847300E-1,-9.672574997E-1,9.014169693E0,3.770867586E0
3.463983070E-1,-9.600749016E-1,9.014169693E0,3.770867586E0
3.482669230E-1,-9.504981041E-1,9.021351814E0,3.766079187E0
3.504347690E-1,-9.552865028E-1,9.033323288E0,3.766079187E0
3.522203840E-1,-9.600749016E-1,9.038111687E0,3.746925592E0
3.545776540E-1,-9.600749016E-1,9.047688484E0,3.737348795E0
3.562255380E-1,-9.720458984E-1,9.050082207E0,3.734954596E0
3.585905380E-1,-9.744400978E-1,9.038111687E0,3.722983599E0
3.603250380E-1,-9.624691010E-1,9.040505409E0,3.706224203E0
3.626953840E-1,-9.624691010E-1,9.047688484E0,3.689464808E0
3.644707690E-1,-9.672574997E-1,9.047688484E0,3.670311213E0
3.668460380E-1,-9.600749016E-1,9.050082207E0,3.667917013E0
3.687228840E-1,-9.457096457E-1,9.059659004E0,3.658340216E0
3.709205000E-1,-9.385270476E-1,9.062053680E0,3.651157618E0
3.726257300E-1,-9.313444495E-1,9.054870605E0,3.648763418E0
3.752112300E-1,-9.289502501E-1,9.052476883E0,3.648763418E0
3.766132690E-1,-9.289502501E-1,9.052476883E0,3.641580820E0
3.795180770E-1,-9.217676520E-1,9.045293808E0,3.648763418E0
3.807191920E-1,-9.074024558E-1,9.050082207E0,3.658340216E0
3.836184610E-1,-9.074024558E-1,9.054870605E0,3.667917013E0
3.848234610E-1,-9.265560508E-1,9.052476883E0,3.667917013E0
3.877549580E-1,-9.361328483E-1,9.047688484E0,3.660734415E0
3.891197690E-1,-9.289502501E-1,9.052476883E0,3.670311213E0
3.917816920E-1,-9.361328483E-1,9.042900085E0,3.679888010E0
3.929660380E-1,-9.313444495E-1,9.035717010E0,3.682282209E0
3.958643840E-1,-9.097966552E-1,9.038111687E0,3.687070608E0
3.970975000E-1,-9.074024558E-1,9.035717010E0,3.696647406E0
3.999788810E-1,-9.145850539E-1,9.023746490E0,3.701435804E0
4.011881150E-1,-9.241618514E-1,9.026140213E0,3.703830004E0
4.040760000E-1,-9.433154464E-1,9.028534889E0,3.711012602E0
4.052592690E-1,-9.457096457E-1,9.042900085E0,3.706224203E0
4.081814970E-1,-9.385270476E-1,9.045293808E0,3.694253206E0
4.095293070E-1,-9.433154464E-1,9.038111687E0,3.691859007E0
4.119374230E-1,-9.552865028E-1,9.040505409E0,3.694253206E0
4.133575770E-1,-9.600749016E-1,9.042900085E0,3.701435804E0
4.160503840E-1,-9.672574997E-1,9.047688484E0,3.720589399E0
4.175257690E-1,-9.672574997E-1,9.038111687E0,3.732560396E0
4.198331920E-1,-9.600749016E-1,9.033323288E0,3.732560396E0
4.215787690E-1,-9.600749016E-1,9.038111687E0,3.732560396E0
4.239218840E-1,-9.720458984E-1,9.026140213E0,3.734954596E0
4.257066920E-1,-9.696516991E-1,9.016563416E0,3.734954596E0
4.280829230E-1,-9.600749016E-1,9.023746490E0,3.734954596E0
4.299355770E-1,-9.552865028E-1,9.030928612E0,3.739742994E0
4.321254610E-1,-9.576807022E-1,9.023746490E0,3.730166197E0
4.338243840E-1,-9.576807022E-1,9.021351814E0,3.722983599E0
4.362453840E-1,-9.624691010E-1,9.033323288E0,3.715801001E0
4.379141530E-1,-9.696516991E-1,9.033323288E0,3.708618402E0
4.402596530E-1,-9.696516991E-1,9.035717010E0,3.701435804E0
4.420226920E-1,-9.744400978E-1,9.033323288E0,3.696647406E0
4.443643460E-1,-9.840168953E-1,9.035717010E0,3.691859007E0
4.461071150E-1,-9.888052940E-1,9.045293808E0,3.694253206E0
4.486125000E-1,-9.959878922E-1,9.045293808E0,3.687070608E0
4.503796150E-1,-1.007958889E0,9.047688484E0,3.682282209E0
4.526881920E-1,-1.015141487E0,9.040505409E0,3.667917013E0
4.542353840E-1,-1.000776291E0,9.040505409E0,3.651157618E0
4.569169610E-1,-9.959878922E-1,9.042900085E0,3.655946016E0
4.583843460E-1,-9.935936928E-1,9.033323288E0,3.672705412E0
4.612346120E-1,-9.888052940E-1,9.028534889E0,3.687070608E0
4.624412690E-1,-9.935936928E-1,9.033323288E0,3.699041605E0
4.653361120E-1,-1.005564690E0,9.035717010E0,3.694253206E0
4.665481530E-1,-1.012747288E0,9.038111687E0,3.691859007E0
4.694380350E-1,-1.007958889E0,9.038111687E0,3.699041605E0
4.709185380E-1,-1.015141487E0,9.033323288E0,3.701435804E0
4.734882270E-1,-1.015141487E0,9.038111687E0,3.699041605E0
4.746674230E-1,-9.959878922E-1,9.033323288E0,3.699041605E0
4.775556120E-1,-9.935936928E-1,9.023746490E0,3.691859007E0
4.787781920E-1,-9.911994934E-1,9.018958092E0,3.694253206E0
4.816579190E-1,-9.816226959E-1,9.021351814E0,3.684676409E0
4.828741530E-1,-9.935936928E-1,9.030928612E0,3.675099611E0
4.857596890E-1,-1.012747288E0,9.040505409E0,3.672705412E0
4.870418460E-1,-1.012747288E0,9.050082207E0,3.660734415E0
4.898624190E-1,-1.012747288E0,9.054870605E0,3.648763418E0
4.912263460E-1,-1.007958889E0,9.052476883E0,3.639186621E0
4.936370000E-1,-1.000776291E0,9.045293808E0,3.629609823E0
4.950636920E-1,-1.000776291E0,9.045293808E0,3.632004023E0
4.977435760E-1,-1.005564690E0,9.045293808E0,3.641580820E0
4.991618070E-1,-1.005564690E0,9.040505409E0,3.641580820E0
5.015508070E-1,-9.959878922E-1,9.038111687E0,3.641580820E0
5.033813070E-1,-9.864110947E-1,9.038111687E0,3.651157618E0
5.056562690E-1,-9.864110947E-1,9.033323288E0,3.675099611E0
5.073841530E-1,-9.816226959E-1,9.030928612E0,3.701435804E0
5.097811150E-1,-9.792284966E-1,9.028534889E0,3.713406801E0
5.117313460E-1,-9.840168953E-1,9.021351814E0,3.725377798E0
5.138638070E-1,-9.768342972E-1,9.004592896E0,3.742137194E0
5.155460760E-1,-9.600749016E-1,9.002198219E0,3.749319792E0
5.179747300E-1,-9.720458984E-1,9.023746490E0,3.761290789E0
5.199643840E-1,-9.864110947E-1,9.026140213E0,3.751713991E0
5.220719230E-1,-9.959878922E-1,9.033323288E0,3.751713991E0
5.238717690E-1,-1.005564690E0,9.035717010E0,3.746925592E0
5.260638070E-1,-9.959878922E-1,9.030928612E0,3.734954596E0
5.279909230E-1,-9.768342972E-1,9.026140213E0,3.725377798E0
5.303157690E-1,-9.720458984E-1,9.026140213E0,3.718195200E0
5.320927300E-1,-9.672574997E-1,9.021351814E0,3.694253206E0
5.343537300E-1,-9.576807022E-1,9.028534889E0,3.679888010E0
5.359124230E-1,-9.672574997E-1,9.045293808E0,3.672705412E0
5.386121920E-1,-9.792284966E-1,9.052476883E0,3.667917013E0
5.400072690E-1,-9.792284966E-1,9.052476883E0,3.677493811E0
5.428997300E-1,-9.768342972E-1,9.033323288E0,3.689464808E0
5.441109230E-1,-9.840168953E-1,9.009381294E0,3.711012602E0
5.470044580E-1,-9.888052940E-1,9.004592896E0,3.737348795E0
5.482126150E-1,-9.911994934E-1,9.014169693E0,3.766079187E0
5.511060350E-1,-1.000776291E0,9.021351814E0,3.787626982E0
5.525797300E-1,-1.005564690E0,9.016563416E0,3.799597979E0
5.551552650E-1,-9.935936928E-1,9.004592896E0,3.811569214E0
5.565209610E-1,-9.792284966E-1,8.997409821E0,3.830722809E0
5.592218040E-1,-9.648633003E-1,8.987833023E0,3.842693806E0
5.604762300E-1,-9.624691010E-1,8.980650902E0,3.828328609E0
5.633235350E-1,-9.744400978E-1,8.985439301E0,3.818751812E0
5.645695000E-1,-9.959878922E-1,8.995016098E0,3.809175014E0
5.674259190E-1,-1.029506683E0,9.004592896E0,3.797203779E0
5.687593840E-1,-1.060631394E0,9.021351814E0,3.780444384E0
5.715275340E-1,-1.079784989E0,9.038111687E0,3.751713991E0
5.731599230E-1,-1.067813993E0,9.045293808E0,3.722983599E0
5.754143460E-1,-1.048660398E0,9.035717010E0,3.694253206E0
5.768178460E-1,-1.039083481E0,9.023746490E0,3.663128614E0
5.794774610E-1,-1.029506683E0,9.030928612E0,3.639186621E0
5.809663070E-1,-1.022324085E0,9.038111687E0,3.620033026E0
5.832733840E-1,-1.029506683E0,9.040505409E0,3.605667830E0
5.850858840E-1,-1.031900883E0,9.042900085E0,3.591302633E0
5.873939990E-1,-1.034295082E0,9.045293808E0,3.572149038E0
5.891078460E-1,-1.031900883E0,9.050082207E0,3.557783842E0
5.916314990E-1,-1.029506683E0,9.050082207E0,3.557783842E0
5.933761530E-1,-1.029506683E0,9.052476883E0,3.555389643E0
5.955736530E-1,-1.031900883E0,9.057265282E0,3.545812607E0
5.972268460E-1,-1.036689281E0,9.064447403E0,3.533841610E0
5.998273840E-1,-1.039083481E0,9.071630478E0,3.531447411E0
6.013688460E-1,-1.029506683E0,9.069235802E0,3.536235809E0
6.038050760E-1,-1.024718285E0,9.059659004E0,3.538630009E0
6.054604230E-1,-1.017535686E0,9.054870605E0,3.550601006E0
6.078584230E-1,-1.007958889E0,9.057265282E0,3.579331636E0
6.095216920E-1,-1.010353088E0,9.052476883E0,3.598485231E0
6.119964990E-1,-1.022324085E0,9.042900085E0,3.622427225E0
6.138639990E-1,-1.031900883E0,9.035717010E0,3.643975019E0
6.161273840E-1,-1.046266198E0,9.033323288E0,3.670311213E0
6.177285380E-1,-1.053448796E0,9.038111687E0,3.701435804E0
6.203048460E-1,-1.051054597E0,9.033323288E0,3.720589399E0
6.217474990E-1,-1.051054597E0,9.023746490E0,3.727771997E0
6.246118040E-1,-1.048660398E0,9.018958092E0,3.734954596E0
6.259179230E-1,-1.039083481E0,9.018958092E0,3.737348795E0
6.286913460E-1,-1.039083481E0,9.018958092E0,3.739742994E0
6.299411530E-1,-1.053448796E0,9.002198219E0,3.742137194E0
6.328148030E-1,-1.065419793E0,9.014169693E0,3.754108191E0
6.343378070E-1,-1.065419793E0,9.030928612E0,3.770867586E0
6.368708800E-1,-1.072602391E0,9.035717010E0,3.775655985E0
6.381036530E-1,-1.074996591E0,9.030928612E0,3.761290789E0
6.409379960E-1,-1.051054597E0,9.030928612E0,3.751713991E0
6.422296530E-1,-1.012747288E0,9.026140213E0,3.756502390E0
6.450396880E-1,-9.888052940E-1,9.023746490E0,3.768473387E0
6.462664990E-1,-9.792284966E-1,9.004592896E0,3.758896589E0
6.491410340E-1,-9.888052940E-1,8.999804497E0,3.746925592E0
6.505094990E-1,-1.012747288E0,9.016563416E0,3.761290789E0
6.532951110E-1,-1.027112484E0,9.030928612E0,3.780444384E0
6.547401920E-1,-1.031900883E0,9.035717010E0,3.780444384E0
6.570953840E-1,-1.048660398E0,9.030928612E0,3.758896589E0
6.586190760E-1,-1.051054597E0,9.018958092E0,3.751713991E0
6.611867690E-1,-1.036689281E0,9.004592896E0,3.756502390E0
6.626081920E-1,-1.029506683E0,8.997409821E0,3.758896589E0
6.650335380E-1,-1.031900883E0,8.999804497E0,3.742137194E0
6.667927690E-1,-1.031900883E0,8.999804497E0,3.732560396E0
6.691215380E-1,-1.036689281E0,8.999804497E0,3.734954596E0
6.708720380E-1,-1.034295082E0,8.999804497E0,3.744531393E0
6.732405760E-1,-1.034295082E0,8.995016098E0,3.749319792E0
6.751189990E-1,-1.029506683E0,8.995016098E0,3.770867586E0
6.772546920E-1,-9.840168953E-1,8.980650902E0,3.835511208E0
6.789556920E-1,-9.672574997E-1,8.968679428E0,3.799597979E0
6.814148840E-1,-1.012747288E0,8.966285706E0,3.749319792E0
6.830708840E-1,-1.051054597E0,8.983044624E0,3.749319792E0
6.855328070E-1,-1.058237195E0,9.011775017E0,3.766079187E0
6.871524610E-1,-1.079784989E0,9.026140213E0,3.758896589E0
6.895476920E-1,-1.146822572E0,9.011775017E0,3.667917013E0
6.912700380E-1,-1.142034173E0,9.030928612E0,3.627215624E0
6.937537300E-1,-1.113303781E0,9.052476883E0,3.617638826E0
6.955429220E-1,-1.103726983E0,9.052476883E0,3.615244627E0
6.977543460E-1,-1.091755986E0,9.033323288E0,3.608062029E0
6.993514610E-1,-1.065419793E0,9.018958092E0,3.593696833E0
7.020566530E-1,-1.041477680E0,9.033323288E0,3.598485231E0
7.034842300E-1,-1.027112484E0,9.052476883E0,3.605667830E0
7.063508800E-1,-1.007958889E0,9.052476883E0,3.603273630E0
7.075601530E-1,-9.696516991E-1,9.033323288E0,3.627215624E0
7.104541880E-1,-9.361328483E-1,9.016563416E0,3.672705412E0
7.117108070E-1,-9.361328483E-1,9.009381294E0,3.708618402E0
7.145563800E-1,-9.624691010E-1,9.004592896E0,3.734954596E0
7.159497690E-1,-9.888052940E-1,9.018958092E0,3.746925592E0
7.186062260E-1,-1.024718285E0,9.030928612E0,3.756502390E0
7.199515380E-1,-1.051054597E0,9.021351814E0,3.787626982E0
7.226729950E-1,-1.060631394E0,9.016563416E0,3.813963413E0
7.238964610E-1,-1.070208192E0,9.014169693E0,3.828328609E0
7.267751880E-1,-1.077390790E0,8.995016098E0,3.861847401E0
7.279801530E-1,-1.067813993E0,8.959102631E0,3.960009575E0
7.308768800E-1,-1.043871999E0,8.937555313E0,3.928884983E0
7.324307690E-1,-1.043871999E0,8.978256226E0,3.864241600E0
7.349788800E-1,-1.036689281E0,9.016563416E0,3.785232782E0
7.363759610E-1,-9.935936928E-1,9.033323288E0,3.730166197E0
7.387814220E-1,-9.768342972E-1,9.047688484E0,3.684676409E0
7.402890760E-1,-9.864110947E-1,9.050082207E0,3.593696833E0
7.428689220E-1,-9.840168953E-1,9.064447403E0,3.509899616E0
7.442796920E-1,-9.888052940E-1,9.117119789E0,3.457227230E0
7.466538070E-1,-1.017535686E0,9.150638580E0,3.430891037E0
7.484008460E-1,-1.053448796E0,9.148244858E0,3.426102638E0
7.508449220E-1,-1.077390790E0,9.129091263E0,3.466804028E0
7.524881150E-1,-1.077390790E0,9.126696587E0,3.473986626E0
7.549081920E-1,-1.051054597E0,9.121908188E0,3.473986626E0
7.567639610E-1,-1.019929886E0,9.097966194E0,3.502717018E0
7.589242690E-1,-9.888052940E-1,9.059659004E0,3.572149038E0
7.608803460E-1,-9.840168953E-1,9.028534889E0,3.667917013E0
7.630951920E-1,-1.000776291E0,9.002198219E0,3.756502390E0
7.648323070E-1,-1.041477680E0,8.990227699E0,3.801992416E0
7.671158460E-1,-1.086967587E0,8.995016098E0,3.818751812E0
7.688451530E-1,-1.118092179E0,9.004592896E0,3.847482204E0
7.717167640E-1,-1.120486379E0,9.002198219E0,3.902548790E0
7.730568460E-1,-1.118092179E0,8.978256226E0,3.938461781E0
7.753618840E-1,-1.108515382E0,8.961497307E0,3.938461781E0
7.771687300E-1,-1.089361787E0,8.966285706E0,3.902548790E0
7.794004610E-1,-1.074996591E0,8.978256226E0,3.837905407E0
7.810189220E-1,-1.055842996E0,8.987833023E0,3.766079187E0
7.837194220E-1,-1.046266198E0,9.006986618E0,3.730166197E0
7.851174220E-1,-1.060631394E0,9.026140213E0,3.711012602E0
7.880222640E-1,-1.067813993E0,9.040505409E0,3.670311213E0
7.892322300E-1,-1.084573388E0,9.062053680E0,3.622427225E0
7.921240720E-1,-1.115697980E0,9.076418877E0,3.562572241E0
7.933401150E-1,-1.106121182E0,9.085995674E0,3.519476414E0
7.962253800E-1,-1.058237195E0,9.088389397E0,3.517082214E0
7.976022300E-1,-1.022324085E0,9.081207275E0,3.521870613E0
8.002746110E-1,-1.027112484E0,9.074024200E0,3.521870613E0
8.014402690E-1,-1.041477680E0,9.078812599E0,3.519476414E0
8.043408410E-1,-1.041477680E0,9.093177795E0,3.536235809E0
8.056067300E-1,-1.041477680E0,9.097966194E0,3.581725836E0
8.084421490E-1,-1.024718285E0,9.069235802E0,3.634398222E0
8.096439610E-1,-9.983820915E-1,9.021351814E0,3.725377798E0
8.125442640E-1,-1.010353088E0,8.999804497E0,3.773261786E0
8.138350380E-1,-1.034295082E0,8.995016098E0,3.809175014E0
8.166463800E-1,-1.041477680E0,9.002198219E0,3.823540211E0
8.184180380E-1,-1.034295082E0,8.999804497E0,3.828328609E0
8.204936920E-1,-1.022324085E0,8.983044624E0,3.842693806E0
8.219317300E-1,-1.000776291E0,8.973467827E0,3.845088005E0
8.247851150E-1,-9.983820915E-1,8.980650902E0,3.823540211E0
8.260516530E-1,-1.015141487E0,8.987833023E0,3.785232782E0
8.283623070E-1,-1.022324085E0,9.002198219E0,3.746925592E0
8.303541920E-1,-1.022324085E0,9.028534889E0,3.720589399E0
8.325353070E-1,-1.022324085E0,9.045293808E0,3.699041605E0
8.344379990E-1,-1.029506683E0,9.050082207E0,3.677493811E0
8.366271530E-1,-1.034295082E0,9.047688484E0,3.643975019E0
8.385037690E-1,-1.029506683E0,9.040505409E0,3.612850428E0
8.406636530E-1,-1.019929886E0,9.038111687E0,3.598485231E0
8.423695760E-1,-1.005564690E0,9.038111687E0,3.591302633E0
8.448569610E-1,-9.911994934E-1,9.035717010E0,3.593696833E0
8.464679990E-1,-9.959878922E-1,9.030928612E0,3.617638826E0
8.488021530E-1,-1.022324085E0,9.021351814E0,3.639186621E0
8.505444220E-1,-1.048660398E0,9.011775017E0,3.660734415E0
8.529932690E-1,-1.065419793E0,9.009381294E0,3.694253206E0
8.546954220E-1,-1.065419793E0,8.999804497E0,3.732560396E0
8.570827300E-1,-1.058237195E0,8.983044624E0,3.773261786E0
8.589518450E-1,-1.053448796E0,8.963891029E0,3.813963413E0
8.613473070E-1,-1.060631394E0,8.947132111E0,3.833117008E0
8.627455380E-1,-1.063025594E0,8.944737434E0,3.845088005E0
8.654569610E-1,-1.058237195E0,8.949525833E0,3.869029999E0
8.668510760E-1,-1.043871999E0,8.944737434E0,3.873818398E0
8.697383790E-1,-1.019929886E0,8.939949036E0,3.881000996E0
8.709479610E-1,-1.012747288E0,8.942343712E0,3.876212597E0
8.738402640E-1,-1.019929886E0,8.949525833E0,3.849876404E0
8.751206920E-1,-1.039083481E0,8.961497307E0,3.809175014E0
8.779423410E-1,-1.051054597E0,8.975862503E0,3.773261786E0
8.793671530E-1,-1.053448796E0,8.987833023E0,3.751713991E0
8.819991100E-1,-1.048660398E0,8.987833023E0,3.722983599E0
8.831821530E-1,-1.036689281E0,8.992621422E0,3.689464808E0
8.860661870E-1,-1.029506683E0,9.004592896E0,3.655946016E0
8.874586150E-1,-1.036689281E0,9.023746490E0,3.629609823E0
8.901677260E-1,-1.039083481E0,9.033323288E0,3.624821424E0
8.914490380E-1,-1.029506683E0,9.038111687E0,3.629609823E0
8.942695720E-1,-1.024718285E0,9.035717010E0,3.620033026E0
8.954912680E-1,-1.005564690E0,9.040505409E0,3.608062029E0
8.983714950E-1,-9.816226959E-1,9.050082207E0,3.622427225E0
8.998379990E-1,-9.792284966E-1,9.040505409E0,3.646369219E0
9.022112680E-1,-9.864110947E-1,9.030928612E0,3.658340216E0
9.037126150E-1,-9.840168953E-1,9.028534889E0,3.667917013E0
9.063047300E-1,-9.792284966E-1,9.035717010E0,3.694253206E0
9.080731150E-1,-9.792284966E-1,9.042900085E0,3.722983599E0
9.100334610E-1,-9.816226959E-1,9.038111687E0,3.734954596E0
9.117898840E-1,-9.864110947E-1,9.038111687E0,3.725377798E0
9.141838450E-1,-9.935936928E-1,9.033323288E0,3.732560396E0
9.158963070E-1,-1.000776291E0,9.021351814E0,3.746925592E0
9.183059220E-1,-1.000776291E0,9.004592896E0,3.758896589E0
9.201709990E-1,-9.935936928E-1,9.009381294E0,3.758896589E0
9.223079610E-1,-9.935936928E-1,9.028534889E0,3.746925592E0
9.240119990E-1,-1.005564690E0,9.050082207E0,3.727771997E0
9.265236150E-1,-1.015141487E0,9.052476883E0,3.718195200E0
9.281290380E-1,-1.010353088E0,9.050082207E0,3.718195200E0
9.306159610E-1,-1.000776291E0,9.062053680E0,3.715801001E0
9.322499610E-1,-9.864110947E-1,9.064447403E0,3.694253206E0
9.345933450E-1,-9.792284966E-1,9.071630478E0,3.672705412E0
9.363732300E-1,-9.600749016E-1,9.078812599E0,3.655946016E0
9.388346530E-1,-9.552865028E-1,9.083600998E0,3.643975019E0
9.407157300E-1,-9.504981041E-1,9.095572472E0,3.643975019E0
9.429278840E-1,-9.504981041E-1,9.102754593E0,3.636792421E0
9.444695760E-1,-9.481038451E-1,9.100360870E0,3.629609823E0
9.470971920E-1,-9.504981041E-1,9.097966194E0,3.622427225E0
9.485519610E-1,-9.576807022E-1,9.100360870E0,3.629609823E0
9.514212250E-1,-9.600749016E-1,9.088389397E0,3.641580820E0
9.527119990E-1,-9.576807022E-1,9.076418877E0,3.658340216E0
9.555228020E-1,-9.648633003E-1,9.071630478E0,3.663128614E0
9.568246150E-1,-9.768342972E-1,9.078812599E0,3.660734415E0
9.596253410E-1,-9.888052940E-1,9.085995674E0,3.663128614E0
9.611558070E-1,-1.005564690E0,9.081207275E0,3.675099611E0
9.636759180E-1,-1.017535686E0,9.064447403E0,3.677493811E0
9.648324990E-1,-1.012747288E0,9.050082207E0,3.684676409E0
9.677431870E-1,-1.012747288E0,9.040505409E0,3.696647406E0
9.691492300E-1,-1.019929886E0,9.035717010E0,3.699041605E0
9.718454560E-1,-1.029506683E0,9.045293808E0,3.701435804E0
9.731756150E-1,-1.036689281E0,9.052476883E0,3.701435804E0
9.759474180E-1,-1.041477680E0,9.052476883E0,3.718195200E0
9.772270760E-1,-1.048660398E0,9.038111687E0,3.730166197E0
9.800497640E-1,-1.055842996E0,9.023746490E0,3.737348795E0
9.814582680E-1,-1.039083481E0,9.018958092E0,3.744531393E0
9.838716530E-1,-1.022324085E0,9.016563416E0,3.746925592E0
9.852733450E-1,-1.027112484E0,9.014169693E0,3.734954596E0
9.879601150E-1,-1.034295082E0,9.009381294E0,3.718195200E0
9.893867300E-1,-1.041477680E0,9.026140213E0,3.730166197E0
9.917889220E-1,-1.036689281E0,9.040505409E0,3.749319792E0
9.935720380E-1,-1.039083481E0,9.030928612E0,3.744531393E0
9.958451920E-1,-1.048660398E0,9.006986618E0,3.725377798E0
9.976427680E-1,-1.041477680E0,8.995016098E0,3.727771997E0
9.999947680E-1,-1.024718285E0,9.009381294E0,3.763684988E0
1.001885499E0,-1.022324085E0,9.016563416E0,3.778050184E0
1.003994191E0,-1.036689281E0,9.014169693E0,3.761290789E0
1.005897461E0,-1.041477680E0,9.009381294E0,3.742137194E0
1.008190499E0,-1.022324085E0,9.018958092E0,3.730166197E0
1.009907461E0,-9.888052940E-1,9.033323288E0,3.756502390E0
1.012174191E0,-9.720458984E-1,9.016563416E0,3.761290789E0
1.013952730E0,-9.768342972E-1,8.987833023E0,3.727771997E0
1.016263115E0,-9.768342972E-1,8.990227699E0,3.701435804E0
1.018055845E0,-9.792284966E-1,9.004592896E0,3.701435804E0
1.020529461E0,-9.935936928E-1,9.026140213E0,3.701435804E0
1.022470768E0,-1.017535686E0,9.038111687E0,3.677493811E0
1.024698076E0,-1.029506683E0,9.038111687E0,3.639186621E0
1.026116845E0,-1.043871999E0,9.040505409E0,3.624821424E0
1.028865461E0,-1.055842996E0,9.040505409E0,3.634398222E0
1.030740345E0,-1.053448796E0,9.035717010E0,3.632004023E0
1.033095110E0,-1.058237195E0,9.023746490E0,3.617638826E0
1.034339845E0,-1.070208192E0,9.002198219E0,3.605667830E0
1.037197417E0,-1.094150186E0,8.947132111E0,3.596091032E0
1.038409230E0,-1.146822572E0,8.932766914E0,3.598485231E0
1.041299417E0,-1.223437071E0,8.937555313E0,3.531447411E0
1.042733884E0,-1.525106430E0,8.585607529E0,2.985569477E0
1.045349187E0,-1.776497602E0,9.133879662E0,3.208230257E0
1.046560384E0,-1.900996208E0,9.832986832E0,3.165134668E0
1.049416456E0,-2.312798738E0,9.660603523E0,2.044648170E0
1.050650768E0,-2.760514498E0,9.706093788E0,1.690306425E0
1.053519225E0,-2.142810583E0,1.002691650E1,2.336740971E0
1.054745191E0,-8.523358107E-1,9.651026726E0,2.822763920E0
1.057620725E0,-4.189853072E-1,8.808267593E0,3.296815634E0
1.058962268E0,-5.961562395E-1,8.329427719E0,3.952826977E0
1.061722417E0,-2.082955539E-1,8.798690796E0,4.805162907E0
1.064015648E0,3.974374831E-1,9.066842079E0,5.018246651E0
1.065619845E0,3.136404157E-1,8.353369713E0,4.568136692E0
1.067026730E0,1.244984865E-1,7.915230751E0,4.850652695E0
1.069686115E0,5.003881454E-1,8.236053467E0,5.738901615E0
1.071202807E0,3.471592367E-1,8.566453934E0,6.232107162E0
1.073459653E0,-9.816226959E-1,8.542511940E0,6.076483727E0
1.075295345E0,-2.202665567E0,8.374917984E0,5.516240597E0
1.077544576E0,-2.545036316E0,8.559270859E0,5.432443619E0
1.079280691E0,-2.497152328E0,8.839392662E0,5.906495571E0
1.081694538E0,-2.226607561E0,8.722076416E0,5.882553577E0
1.083577884E0,-1.637633920E0,8.674192429E0,5.202600479E0
1.085740461E0,-1.122880578E0,8.825027466E0,4.074931145E0
1.087447999E0,-8.619126081E-1,9.004592896E0,2.837129116E0
1.089904115E0,-4.860229492E-1,9.248801231E0,1.958456993E0
1.091528461E0,8.858546615E-2,9.337387085E0,1.201889277E0
1.094096961E0,2.681505978E-1,9.636661530E0,5.602431893E-1
1.095633807E0,-2.777273953E-1,1.041717148E1,-1.532289088E-1
1.097986153E0,-1.307234168E0,1.084573364E1,-1.750161409E0
1.099827153E0,-2.509123325E0,1.106121159E1,-3.019088268E0
1.102110461E0,-3.102885485E0,1.136527538E1,-2.159569979E0
1.104103653E0,-2.631227732E0,1.093431950E1,-9.600749016E-1
1.106261345E0,-2.324769735E0,1.016817474E1,2.178723514E-1
1.107959768E0,-1.836352706E0,9.411606789E0,1.211466074E0
1.110512961E0,-7.637503147E-1,9.004592896E0,2.497152328E0
1.111955691E0,2.418143749E-1,8.530540466E0,4.086902142E0
1.114811532E0,5.961562395E-1,7.730877399E0,5.691017628E0
1.116078576E0,4.429273009E-1,7.122750282E0,7.235277653E0
1.118913302E0,-4.309562966E-2,7.103596210E0,8.599972725E0
1.120190576E0,-9.816226959E-1,7.424419403E0,9.504981041E0
1.123015571E0,-2.217030764E0,7.694964409E0,9.792284966E0
1.124398538E0,-3.215412855E0,7.819462776E0,9.715670586E0
1.127071686E0,-3.552995205E0,7.733271599E0,9.346963882E0
1.128233845E0,-3.241749048E0,7.783549786E0,8.911218643E0
1.131138302E0,-2.427720547E0,8.197746277E0,8.324639320E0
1.132491538E0,-1.350329757E0,8.631096840E0,7.022193432E0
1.135240148E0,-4.596867263E-1,8.832210541E0,5.183446884E0
1.136464884E0,7.661445439E-2,8.863334656E0,3.476380825E0
1.139341455E0,6.344634295E-1,9.054870605E0,2.363077164E0
1.140583999E0,1.261744261E0,9.449913979E0,1.539471745E0
1.143443071E0,1.367089152E0,9.842563629E0,4.189853072E-1
1.144888614E0,6.943184733E-1,1.020408726E1,-1.019929886E0
1.147275038E0,-2.513911724E-1,1.063743782E1,-2.303221941E0
1.148763153E0,-9.696516991E-1,1.106599998E1,-2.839523315E0
1.151358845E0,-1.371877551E0,1.117134476E1,-2.583343744E0
1.152811538E0,-1.496376038E0,1.087207031E1,-1.922544003E0
1.155283999E0,-1.414973259E0,1.041717148E1,-1.197100878E0
1.156897230E0,-1.273715258E0,1.009395409E1,-4.046200812E-1
1.159260538E0,-1.149216771E0,9.890447617E0,6.703764796E-1
1.160961845E0,-9.816226959E-1,9.203310966E0,3.021482468E0
1.163598691E0,-7.972691655E-1,8.425195694E0,4.927267075E0
1.165253730E0,-5.195417404E-1,7.702147007E0,6.710947514E0
1.167510268E0,-2.178723514E-1,7.278373241E0,8.039729118E0
1.169092999E0,-8.619125932E-2,7.156269073E0,8.741230011E0
1.171607268E0,-3.040636182E-1,7.225700855E0,8.882488251E0
1.173185384E0,-7.972691655E-1,7.445967197E0,8.774748802E0
1.175553384E0,-1.302445769E0,7.757213593E0,8.623914719E0
1.177275153E0,-1.659181833E0,8.075642586E0,8.317456245E0
1.179718884E0,-1.838746905E0,8.339004517E0,7.606379032E0
1.181416538E0,-1.869871497E0,8.592789650E0,6.454767704E0
1.183921153E0,-1.764526606E0,8.899248123E0,5.166687489E0
1.185708999E0,-1.517923832E0,9.188945770E0,4.060565948E0
1.187906730E0,-1.170764685E0,9.361329079E0,3.246537447E0
1.189560653E0,-7.422025204E-1,9.442731857E0,2.573766708E0
1.192292922E0,-2.466027737E-1,9.538499832E0,1.821987510E0
1.193853961E0,2.226607651E-1,9.722852707E0,9.744400978E-1
1.196496147E0,5.291185975E-1,9.921571732E0,1.723825186E-1
1.197745961E0,5.865794420E-1,1.005325317E1,-3.734954596E-1
1.200598840E0,3.208230138E-1,1.010592556E1,-4.908113480E-1
1.201815345E0,-2.585737705E-1,1.012986755E1,-1.819593310E-1
1.204700763E0,-1.010353088E0,1.016338634E1,3.854664862E-1
1.206351499E0,-1.699883223E0,1.017535686E1,1.043871999E0
1.208750763E0,-2.087743998E0,1.007240677E1,1.781286120E0
1.209948845E0,-2.061407566E0,9.751583099E0,2.695871115E0
1.212818186E0,-1.680729628E0,9.210494041E0,3.813963413E0
1.214175076E0,-1.101332784E0,8.588001251E0,5.018246651E0
1.216919840E0,-4.764461517E-1,8.049305916E0,6.062118530E0
1.218157461E0,5.746084079E-2,7.716512203E0,6.742072105E0
1.221021878E0,4.405331016E-1,7.551311970E0,7.070077419E0
1.222285845E0,3.447650373E-1,7.613561630E0,7.024587631E0
1.225123955E0,-3.591302410E-2,7.790732384E0,6.873753071E0
1.226536384E0,-6.344634295E-1,8.061277390E0,6.531382084E0
1.228954153E0,-1.350329757E0,8.386888504E0,5.908889771E0
1.230485114E0,-1.984793186E0,8.743624687E0,5.020640850E0
1.233053576E0,-2.327163935E0,9.117119789E0,4.046200752E0
1.234468422E0,-2.312798738E0,9.437943459E0,3.174711466E0
1.236892114E0,-1.987187386E0,9.624691010E0,2.480392933E0
1.238550768E0,-1.498770237E0,9.679757118E0,1.908178806E0
1.240917691E0,-9.768342972E-1,9.672574997E0,1.412579060E0
1.242631499E0,-4.860229492E-1,9.677363396E0,1.012747288E0
1.245030768E0,-1.125274822E-1,9.691728592E0,8.188169599E-1
1.246915537E0,5.506663769E-2,9.655815125E0,9.002198577E-1
1.249117268E0,-4.309562966E-2,9.567230225E0,1.240196466E0
1.250848268E0,-4.189853072E-1,9.502586365E0,1.752555609E0
1.253226076E0,-1.019929886E0,9.497797966E0,2.322375536E0
1.254963461E0,-1.671152830E0,9.514557838E0,2.873042107E0
1.257253691E0,-2.171540976E0,9.490615845E0,3.430891037E0
1.259009999E0,-2.360682964E0,9.346963882E0,4.053383350E0
1.261356307E0,-2.221819162E0,9.078812599E0,4.750096321E0
1.263104961E0,-1.862688899E0,8.717288017E0,5.427655220E0
1.265463653E0,-1.412579060E0,8.346187592E0,5.971138954E0
1.267443807E0,-9.744400978E-1,8.073247910E0,6.294356346E0
1.269579191E0,-6.153098345E-1,7.941566944E0,6.394912720E0
1.271262999E0,-3.926490843E-1,7.941566944E0,6.349422932E0
1.274056416E0,-3.495534360E-1,8.013393402E0,6.174646378E0
1.275296345E0,-5.195417404E-1,8.137891769E0,5.803544998E0
1.278157763E0,-8.523358107E-1,8.343792915E0,5.202600479E0
1.279431884E0,-1.283292055E0,8.633491516E0,4.407725334E0
1.282259378E0,-1.893813491E0,9.119514465E0,3.055001259E0
1.283491653E0,-2.116474390E0,9.411606789E0,2.252943754E0
1.286360839E0,-2.154781580E0,9.651026726E0,1.618480325E0
1.287895422E0,-2.037465572E0,9.809044838E0,1.154005170E0
1.290410839E0,-1.798045516E0,9.868899345E0,8.331822157E-1
1.291613845E0,-1.441309452E0,9.847352028E0,6.607996821E-1
1.294477878E0,-1.005564690E0,9.763554573E0,6.727706790E-1
1.295857999E0,-5.722141862E-1,9.627084732E0,9.026140571E-1
1.298578916E0,-2.537853718E-1,9.454702377E0,1.321599364E0
1.299915691E0,-1.532289088E-1,9.308655739E0,1.862688899E0
1.302680109E0,-2.968810201E-1,9.196128845E0,2.432508945E0
1.303952422E0,-6.057330370E-1,9.121908188E0,3.009511471E0
1.306781916E0,-9.744400978E-1,9.081207275E0,3.639186621E0
1.308484922E0,-1.316810966E0,9.018958092E0,4.299986362E0
1.310665961E0,-1.572990537E0,8.906430244E0,4.908113480E0
1.312074191E0,-1.685518026E0,8.760383606E0,5.415684223E0
1.314755384E0,-1.663970232E0,8.592789650E0,5.798756599E0
1.316233230E0,-1.520318031E0,8.437167168E0,6.047753334E0
1.318511961E0,-1.271321058E0,8.312667847E0,6.162675381E0
1.320260730E0,-9.720458984E-1,8.221688271E0,6.138733387E0
1.322634807E0,-7.206547260E-1,8.185775757E0,5.992686749E0
1.324356768E0,-6.153098345E-1,8.200140953E0,5.726930618E0
1.326749653E0,-7.015010715E-1,8.295908928E0,5.317522049E0
1.328669691E0,-9.433154464E-1,8.482656479E0,4.790797710E0
1.330762384E0,-1.271321058E0,8.726864815E0,4.199429989E0
1.332535230E0,-1.604115129E0,9.002198219E0,3.579331636E0
1.335052845E0,-1.848323703E0,9.275136948E0,2.968810081E0
1.336576037E0,-1.972822189E0,9.507374763E0,2.389413357E0
1.339237730E0,-1.889025092E0,9.720458984E0,1.687912226E0
1.340781691E0,-1.644816518E0,9.742006302E0,1.412579060E0
1.343046807E0,-1.292868972E0,9.696516991E0,1.335964561E0
1.344884422E0,-9.002198577E-1,9.603142738E0,1.434126854E0
1.347231614E0,-5.793967843E-1,9.526528358E0,1.685518026E0
1.349075037E0,-4.070142806E-1,9.509769440E0,2.073378563E0
1.351279076E0,-3.471592367E-1,9.291896820E0,2.377442360E0
1.352935422E0,-4.525041282E-1,9.097966194E0,2.827552319E0
1.355757685E0,-6.320692301E-1,9.097966194E0,3.586514235E0
1.357143845E0,-8.020575643E-1,9.004592896E0,4.012681961E0
1.359859108E0,-1.132457376E0,8.942343712E0,4.264073372E0
1.361154384E0,-1.515529633E0,8.870517731E0,4.340687752E0
1.363960647E0,-1.678335428E0,8.896853447E0,4.431667328E0
1.365237922E0,-1.699883223E0,8.968679428E0,4.649539471E0
1.368062108E0,-1.742978811E0,8.918401718E0,4.790797710E0
1.369545653E0,-1.750161409E0,8.808267593E0,4.824316502E0
1.372118147E0,-1.604115129E0,8.712499619E0,4.680664539E0
1.373287807E0,-1.367089152E0,8.734047890E0,4.565742493E0
1.376184378E0,-1.130063176E0,8.717288017E0,4.378994942E0
1.377497230E0,-9.816226959E-1,8.667010307E0,4.115632534E0
1.380272614E0,-9.528923035E-1,8.681375504E0,3.830722809E0
1.381464268E0,-1.051054597E0,8.841787338E0,3.579331636E0
1.384386724E0,-1.228225470E0,9.078812599E0,3.359065056E0
1.385588653E0,-1.434126854E0,9.203310966E0,3.021482468E0
1.388488993E0,-1.654393315E0,9.244012833E0,2.719813108E0
1.390065422E0,-1.831564307E0,9.272743225E0,2.604891539E0
1.392321345E0,-1.896207690E0,9.339780807E0,2.700659513E0
1.393756345E0,-1.929726601E0,9.390059471E0,2.863465309E0
1.396517807E0,-1.984793186E0,9.366117477E0,2.968810081E0
1.397823960E0,-1.956062794E0,9.301473618E0,3.098097086E0
1.400160845E0,-1.458068848E0,9.162610054E0,3.517082214E0
1.401893153E0,-9.409212470E-1,9.026140213E0,3.857059002E0
1.404261114E0,-4.836287498E-1,8.848969460E0,4.060565948E0
1.405998653E0,-2.178723514E-1,8.746018410E0,4.125209332E0
1.408384191E0,-1.963245422E-1,8.757989883E0,4.113238335E0
1.410316114E0,-3.950432837E-1,8.815450668E0,4.096478939E0
1.412404922E0,-7.230489254E-1,8.877699852E0,4.077325344E0
1.414091614E0,-1.086967587E0,8.944737434E0,4.015076160E0
1.416559884E0,-1.431732655E0,9.045293808E0,3.890577793E0
1.418297114E0,-1.695094824E0,9.174580574E0,3.687070608E0
1.420628691E0,-1.833958507E0,9.275136948E0,3.452438831E0
1.422408999E0,-1.802833915E0,9.282320023E0,3.258508444E0
1.424762422E0,-1.570596337E0,9.191340446E0,3.179499865E0
1.426414614E0,-1.197100878E0,9.050082207E0,3.213018656E0
1.428844730E0,-8.236053586E-1,8.925583839E0,3.299209833E0
1.430715499E0,-6.009446383E-1,8.844181061E0,3.342305660E0
1.432923268E0,-6.200982332E-1,8.820239067E0,3.359065056E0
1.434551230E0,-8.595184088E-1,8.848969460E0,3.438073635E0
1.437218460E0,-1.201889277E0,8.913613319E0,3.643975019E0
1.438704230E0,-1.527500629E0,8.968679428E0,3.928884983E0
1.441529416E0,-1.750161409E0,8.980650902E0,4.168305397E0
1.442715076E0,-1.817199111E0,8.956708908E0,4.297592163E0
1.445624768E0,-1.726219416E0,8.923190117E0,4.367023945E0
1.446824422E0,-1.529894829E0,8.887276649E0,4.431667328E0
1.449731262E0,-1.290474772E0,8.844181061E0,4.517858505E0
1.451112230E0,-1.043871999E0,8.789113998E0,4.611232281E0
1.453779262E0,-8.068459630E-1,8.748413086E0,4.642356873E0
1.454942191E0,-6.200982332E-1,8.729259491E0,4.592078686E0
1.457841576E0,-5.099649429E-1,8.741230011E0,4.455609322E0
1.459059268E0,-4.788403511E-1,8.779537201E0,4.280832767E0
1.461935883E0,-5.961562395E-1,8.863334656E0,4.072536945E0
1.463158191E0,-7.565677166E-1,8.930372238E0,3.914519787E0
1.466040191E0,-9.313444495E-1,9.028534889E0,3.694253206E0
1.467246499E0,-1.086967587E0,9.141061783E0,3.440467834E0
1.470145916E0,-1.192312479E0,9.227252960E0,3.229778051E0
1.471568807E0,-1.233013868E0,9.258378029E0,3.086126089E0
1.473927307E0,-1.209071875E0,9.239224434E0,3.026270866E0
1.475414153E0,-1.125274777E0,9.181763649E0,3.052607059E0
1.478046768E0,-1.007958889E0,9.114726067E0,3.148375273E0
1.479446999E0,-8.643068075E-1,9.035717010E0,3.284844637E0
1.481804691E0,-7.134721279E-1,8.932766914E0,3.447650433E0
1.483528114E0,-5.913678408E-1,8.836998940E0,3.663128614E0
1.485945845E0,-5.339069963E-1,8.781931877E0,3.921702385E0
1.487762037E0,-5.841852427E-1,8.760383606E0,4.161122322E0
1.490056268E0,-7.302315235E-1,8.753201485E0,4.307168961E0
1.491915037E0,-9.097966552E-1,8.757989883E0,4.374206543E0
1.494244653E0,-1.051054597E0,8.774748802E0,4.414907932E0
1.495773537E0,-1.108515382E0,8.791508675E0,4.493916512E0
1.498329230E0,-1.089361787E0,8.786720276E0,4.580107689E0
1.499967153E0,-1.029506683E0,8.753201485E0,4.613626480E0
1.502274383E0,-9.385270476E-1,8.726864815E0,4.584896088E0
1.503985460E0,-8.116343617E-1,8.714894295E0,4.525041103E0
1.506490653E0,-6.703764796E-1,8.710105896E0,4.469974518E0
1.508586807E0,-5.506663918E-1,8.698134422E0,4.431667328E0
1.510635153E0,-4.788403511E-1,8.683769226E0,4.371812344E0
1.512434845E0,-4.979939461E-1,8.702922821E0,4.264073372E0
1.514561576E0,-6.129156351E-1,8.748413086E0,4.108449936E0
1.516159614E0,-7.757213712E-1,8.810662270E0,3.945644379E0
1.518880691E0,-9.193734527E-1,8.884882927E0,3.828328609E0
1.520249153E0,-1.012747288E0,8.923190117E0,3.758896589E0
1.523155268E0,-1.065419793E0,8.920795441E0,3.737348795E0
1.524451845E0,-1.072602391E0,8.908824921E0,3.758896589E0
1.527252653E0,-1.055842996E0,8.908824921E0,3.768473387E0
1.528447191E0,-1.017535686E0,8.904036522E0,3.809175014E0
1.531362877E0,-9.337386489E-1,8.882488251E0,3.900154591E0
1.532722537E0,-7.996633649E-1,8.846575737E0,4.036623955E0
1.535387191E0,-6.440402865E-1,8.813055992E0,4.185064793E0
1.536556614E0,-5.099649429E-1,8.777143478E0,4.319139957E0
1.539472845E0,-4.046200812E-1,8.753201485E0,4.398148537E0
1.540686845E0,-3.471592367E-1,8.736441612E0,4.434061527E0
1.543575960E0,-3.423708379E-1,8.734047890E0,4.458003521E0
1.544771460E0,-3.878606856E-1,8.757989883E0,4.479551315E0
1.547677608E0,-4.716577232E-1,8.805873871E0,4.469974518E0
1.548875037E0,-5.985504389E-1,8.877699852E0,4.410119534E0
1.551778223E0,-7.469909191E-1,8.959102631E0,4.309563160E0
1.553440883E0,-8.403648138E-1,9.028534889E0,4.177882195E0
1.555760614E0,-8.331822157E-1,9.064447403E0,4.072536945E0
1.557162114E0,-7.398083210E-1,9.062053680E0,4.010287762E0
1.559922191E0,-5.889736414E-1,9.054870605E0,3.955221176E0
1.561238345E0,-4.357447028E-1,9.059659004E0,3.883395195E0
1.563498845E0,-3.303998411E-1,9.088389397E0,3.794809580E0
1.565286845E0,-2.896983922E-1,9.169792175E0,3.737348795E0
1.567742153E0,-3.471592367E-1,9.284713745E0,3.737348795E0
1.569348845E0,-4.908113480E-1,9.382876396E0,3.785232782E0
1.571893691E0,-6.560112834E-1,9.394847870E0,3.830722809E0
1.573613114E0,-7.015010715E-1,9.279925346E0,3.799597979E0
1.575765883E0,-5.746083856E-1,9.105149269E0,3.694253206E0
1.577431268E0,-3.208230138E-1,8.973467827E0,3.576937437E0
1.579888922E0,-1.436521020E-2,8.961497307E0,3.514688015E0
1.581552768E0,-6.224924326E-2,9.062053680E0,3.610456228E0
1.583907383E0,-3.016694188E-1,9.162610054E0,3.780444384E0
1.585721999E0,-6.344634295E-1,9.239224434E0,3.988739967E0
1.588162614E0,-8.571242094E-1,9.234436035E0,4.177882195E0
1.589950537E0,-8.236053586E-1,9.129091263E0,4.295197964E0
1.592179768E0,-5.578489900E-1,8.932766914E0,4.347870350E0
1.594003768E0,-1.963245422E-1,8.722076416E0,4.343081951E0
1.596246383E0,6.703764945E-2,8.607154846E0,4.309563160E0
1.597866268E0,7.182604820E-2,8.674192429E0,4.316745758E0
1.600535460E0,-1.460463107E-1,8.863334656E0,4.386177540E0
1.601942037E0,-4.405331016E-1,9.030928612E0,4.486733913E0
1.604857922E0,-6.560112834E-1,9.069235802E0,4.604049683E0
1.606042114E0,-6.895300746E-1,8.961497307E0,4.709394932E0
1.608947730E0,-5.458779931E-1,8.810662270E0,4.764461517E0
1.610147653E0,-3.256114423E-1,8.738836288E0,4.695029736E0
1.613063607E0,-1.268926859E-1,8.801085472E0,4.436455727E0
1.614479422E0,2.154781483E-2,8.963891029E0,4.065354347E0
1.617095691E0,1.340752989E-1,9.133879662E0,3.679888010E0
1.618286230E0,2.489969730E-1,9.246406555E0,3.394978046E0
1.621185877E0,3.399766386E-1,9.282320023E0,3.258508444E0
1.622507883E0,3.088520169E-1,9.251194954E0,3.213018656E0
1.625287877E0,8.379705995E-2,9.210494041E0,3.215412855E0
1.626477691E0,-3.280056417E-1,9.239224434E0,3.258508444E0
1.629389653E0,-8.140285611E-1,9.346963882E0,3.363853455E0
1.630686383E0,-1.189918280E0,9.469067574E0,3.574543238E0
1.633491146E0,-1.323993564E0,9.504981041E0,3.840299606E0
1.634924191E0,-1.139639974E0,9.387664795E0,4.074931145E0
1.637257614E0,-6.727706790E-1,9.136273384E0,4.259284973E0
1.639001230E0,-5.506663769E-2,8.813055992E0,4.419696331E0
1.641384614E0,7.062895298E-1,8.410830498E0,4.699818134E0
1.642928037E0,8.020575643E-1,8.317456245E0,4.929661274E0
1.645193230E0,4.740519226E-1,8.403648376E0,5.130774021E0
1.646916191E0,-1.556231081E-1,8.614337921E0,5.250484467E0
1.649296883E0,-8.523358107E-1,8.832210541E0,5.281609058E0
1.651005306E0,-1.359906554E0,8.951920509E0,5.248090267E0
1.653398499E0,-1.503558636E0,8.920795441E0,5.142745018E0
1.655286883E0,-1.283292055E0,8.779537201E0,4.958391666E0
1.657427383E0,-8.379706144E-1,8.631096840E0,4.714183331E0
1.659170883E0,-3.591302633E-1,8.554482460E0,4.412513733E0
1.661607806E0,-2.394201700E-3,8.602366447E0,4.089296341E0
1.663214383E0,1.604115069E-1,8.760383606E0,3.825934410E0
1.665596383E0,1.364694983E-1,8.944737434E0,3.641580820E0
1.667406153E0,-1.436521020E-2,9.071630478E0,3.531447411E0
1.669943268E0,-2.346317619E-1,9.126696587E0,3.481169224E0
1.671782191E0,-4.596867263E-1,9.138668060E0,3.442862034E0
1.673918576E0,-6.296750307E-1,9.119514465E0,3.402160645E0
1.675809229E0,-7.110779285E-1,9.081207275E0,3.368641853E0
1.677941153E0,-6.991068721E-1,9.050082207E0,3.380612850E0
1.679589422E0,-5.985504389E-1,9.026140213E0,3.426102638E0
1.682225653E0,-4.213795066E-1,9.004592896E0,3.481169224E0
1.684033229E0,-2.178723514E-1,8.973467827E0,3.567360640E0
1.686531299E0,-7.661445439E-2,8.932766914E0,3.675099611E0
1.687754499E0,-6.464344263E-2,8.887276649E0,3.790021181E0
1.690632723E0,-1.915361285E-1,8.858546257E0,3.926490784E0
1.691810076E0,-4.022258818E-1,8.856152534E0,4.067748547E0
1.694734146E0,-6.344634295E-1,8.882488251E0,4.218583584E0
1.696115845E0,-8.523358107E-1,8.911218643E0,4.326322556E0
1.698783415E0,-1.012747288E0,8.930372238E0,4.378994942E0
1.699979229E0,-1.060631394E0,8.884882927E0,4.355052948E0
1.702850037E0,-9.840168953E-1,8.736441612E0,4.268861771E0
1.704171999E0,-8.762778044E-1,8.676587105E0,4.220977783E0
1.706952684E0,-8.188169599E-1,8.686163902E0,4.161122322E0
1.708188960E0,-8.690952063E-1,8.738836288E0,4.113238335E0
1.711046960E0,-1.005564690E0,8.803479195E0,4.079719543E0
1.712263345E0,-1.149216771E0,8.865729332E0,4.115632534E0
1.715155992E0,-1.225831270E0,8.896853447E0,4.199429989E0
1.716488922E0,-1.201889277E0,8.868123055E0,4.266467571E0
1.718917306E0,-1.084573388E0,8.786720276E0,4.271255970E0
1.720364114E0,-9.074024558E-1,8.710105896E0,4.225766182E0
1.723061191E0,-7.302315235E-1,8.676587105E0,4.141968727E0
1.724533768E0,-6.320692301E-1,8.717288017E0,4.048594952E0
1.726868345E0,-6.536170840E-1,8.825027466E0,3.967192173E0
1.728572383E0,-7.876923680E-1,8.961497307E0,3.928884983E0
1.730917460E0,-9.720458984E-1,9.076418877E0,3.955221176E0
1.732659999E0,-1.103726983E0,9.100360870E0,4.012681961E0
1.735049691E0,-1.122880578E0,9.033323288E0,4.106055737E0
1.737060691E0,-1.019929886E0,8.920795441E0,4.206612587E0
1.739088114E0,-8.427590132E-1,8.827422142E0,4.244919777E0
1.740778306E0,-6.655880809E-1,8.808267593E0,4.204218388E0
1.743244306E0,-5.434837937E-1,8.851364136E0,4.058171749E0
1.744981422E0,-4.860229492E-1,8.932766914E0,3.890577793E0
1.747272153E0,-4.836287498E-1,8.997409821E0,3.768473387E0
1.749097999E0,-5.243301988E-1,9.030928612E0,3.689464808E0
1.751343191E0,-6.177040339E-1,9.033323288E0,3.665522814E0
1.753156114E0,-7.733271718E-1,9.035717010E0,3.667917013E0
1.755559537E0,-9.672574997E-1,9.038111687E0,3.672705412E0
1.757387345E0,-1.247379065E0,9.052476883E0,3.737348795E0
1.759619152E0,-1.357512355E0,9.081207275E0,3.828328609E0
1.761220806E0,-1.343147159E0,9.095572472E0,3.928884983E0
1.763925883E0,-1.225831270E0,9.071630478E0,4.012681961E0
1.765286614E0,-1.010353088E0,8.980650902E0,4.058171749E0
1.768193876E0,-7.350199223E-1,8.844181061E0,4.094084740E0
1.769449806E0,-4.740519226E-1,8.714894295E0,4.158728123E0
1.772296607E0,-3.112462163E-1,8.633491516E0,4.242525578E0
1.773657614E0,-3.351882398E-1,8.643068314E0,4.319139957E0
1.776399799E0,-5.530605912E-1,8.736441612E0,4.369418144E0
1.777791345E0,-8.882488012E-1,8.858546257E0,4.405331135E0
1.780450568E0,-1.211466074E0,8.954314232E0,4.458003521E0
1.781651152E0,-1.414973259E0,8.980650902E0,4.505887508E0
1.784518107E0,-1.429338455E0,8.939949036E0,4.525041103E0
1.785779422E0,-1.235408068E0,8.872911453E0,4.489128113E0
1.788609768E0,-9.217676520E-1,8.817844391E0,4.386177540E0
1.789840268E0,-5.961562395E-1,8.793902397E0,4.240131378E0
1.792721191E0,-3.471592367E-1,8.827422142E0,4.096478939E0
1.793935460E0,-2.274491638E-1,8.884882927E0,3.986345768E0
1.796825222E0,-2.418143749E-1,8.949525833E0,3.924096584E0
1.798449229E0,-3.687070608E-1,9.011775017E0,3.895366192E0
1.800715268E0,-5.530605912E-1,9.040505409E0,3.869029999E0
1.802090691E0,-7.445967197E-1,9.059659004E0,3.823540211E0
1.804775229E0,-9.002198577E-1,9.085995674E0,3.770867586E0
1.806538576E0,-9.816226959E-1,9.136273384E0,3.696647406E0
1.808550691E0,-9.385270476E-1,9.205705643E0,3.579331636E0
1.810296460E0,-7.517793179E-1,9.258378029E0,3.414131641E0
1.812652576E0,-4.596867263E-1,9.265560150E0,3.239354849E0
1.814498383E0,-2.633621916E-2,9.203310966E0,3.105279684E0
1.816785306E0,1.149216816E-1,9.150638580E0,3.112462282E0
1.818700422E0,7.661445439E-2,9.126696587E0,3.191470861E0
1.820870768E0,-1.508347094E-1,9.138668060E0,3.301604033E0
1.822529345E0,-5.027823448E-1,9.172186852E0,3.428496838E0
1.824938999E0,-8.379706144E-1,9.222464561E0,3.593696833E0
1.826613460E0,-1.041477680E0,9.253589630E0,3.785232782E0
1.828991037E0,-1.058237195E0,9.222464561E0,3.952826977E0
1.830673691E0,-8.954314590E-1,9.119514465E0,4.074931145E0
1.833068845E0,-6.296750307E-1,8.999804497E0,4.165910721E0
1.834809922E0,-3.471592367E-1,8.920795441E0,4.244919777E0
1.837227422E0,-1.292868853E-1,8.870517731E0,4.309563160E0
1.839164460E0,-4.788403213E-2,8.832210541E0,4.383783340E0
1.841299460E0,-1.340752989E-1,8.813055992E0,4.460397720E0
1.842908999E0,-3.303998411E-1,8.856152534E0,4.563348293E0
1.845591114E0,-5.746083856E-1,8.920795441E0,4.654327869E0
1.847033960E0,-7.685387731E-1,8.942343712E0,4.668693542E0
1.849917114E0,-8.571242094E-1,8.951920509E0,4.620809078E0
1.851103037E0,-8.140285611E-1,8.959102631E0,4.527435303E0
1.854021607E0,-6.584054828E-1,8.987833023E0,4.407725334E0
1.855204537E0,-4.477157295E-1,8.995016098E0,4.240131378E0
1.858123760E0,-2.657563984E-1,8.944737434E0,3.988739967E0
1.859499883E0,-1.843535304E-1,8.956708908E0,3.780444384E0
1.862169729E0,-2.130839527E-1,9.042900085E0,3.653551817E0
1.863435768E0,-3.375824392E-1,9.143456459E0,3.605667830E0
1.866247299E0,-5.530605912E-1,9.212887764E0,3.624821424E0
1.867528883E0,-7.829039693E-1,9.220070839E0,3.689464808E0
1.870349953E0,-9.169792533E-1,9.198522568E0,3.780444384E0
1.871539960E0,-9.097966552E-1,9.157821655E0,3.871424198E0
1.874432691E0,-7.062895298E-1,9.016563416E0,3.924096584E0
1.875807114E0,-5.075707436E-1,8.913613319E0,3.926490784E0
1.878554606E0,-3.639186621E-1,8.834604263E0,3.943250179E0
1.880017460E0,-3.471592367E-1,8.805873871E0,3.981557369E0
1.882375191E0,-4.548983276E-1,8.846575737E0,4.048594952E0
1.883760152E0,-6.272808313E-1,8.918401718E0,4.098873138E0
1.886414345E0,-8.259995580E-1,8.959102631E0,4.122815132E0
1.887873922E0,-9.792284966E-1,8.937555313E0,4.139574528E0
1.890310652E0,-1.029506683E0,8.901641846E0,4.161122322E0
1.891970152E0,-9.864110947E-1,8.887276649E0,4.187458992E0
1.894465845E0,-9.121908545E-1,8.892065048E0,4.168305397E0
1.896148960E0,-8.427590132E-1,8.877699852E0,4.055777550E0
1.898453768E0,-7.637503147E-1,8.870517731E0,3.933673382E0
1.900338191E0,-6.703764796E-1,8.877699852E0,3.892971992E0
1.902498306E0,-5.817909837E-1,8.884882927E0,3.928884983E0
1.904180652E0,-5.315127969E-1,8.882488251E0,3.967192173E0
1.906704191E0,-5.530605912E-1,8.865729332E0,3.960009575E0
1.908326152E0,-6.224924326E-1,8.863334656E0,3.948038578E0
1.910663729E0,-6.847416759E-1,8.882488251E0,3.960009575E0
1.912358191E0,-7.350199223E-1,8.899248123E0,3.988739967E0
1.914732075E0,-7.637503147E-1,8.892065048E0,4.007893562E0
1.916483460E0,-7.805097699E-1,8.880094528E0,4.007893562E0
1.918910652E0,-7.829039693E-1,8.882488251E0,3.991134167E0
1.920768268E0,-7.805097699E-1,8.906430244E0,3.974374771E0
1.922965499E0,-7.565677166E-1,8.918401718E0,3.948038578E0
1.924589575E0,-7.015010715E-1,8.916007042E0,3.928884983E0
1.927285383E0,-6.488286853E-1,8.901641846E0,3.928884983E0
1.928775075E0,-6.081272364E-1,8.904036522E0,3.928884983E0
1.931602722E0,-5.746083856E-1,8.930372238E0,3.919308186E0
1.932784575E0,-5.793967843E-1,8.949525833E0,3.871424198E0
1.935704491E0,-6.488286853E-1,8.968679428E0,3.763684988E0
1.936892922E0,-6.799532771E-1,9.002198219E0,3.720589399E0
1.939806529E0,-6.943184733E-1,9.045293808E0,3.699041605E0
1.941230075E0,-7.086837292E-1,9.088389397E0,3.679888010E0
1.943856837E0,-7.445967197E-1,9.119514465E0,3.639186621E0
1.945006806E0,-7.781155705E-1,9.124302864E0,3.600879431E0
1.947899460E0,-7.685387731E-1,9.114726067E0,3.627215624E0
1.949112152E0,-7.110779285E-1,9.081207275E0,3.708618402E0
1.952025568E0,-6.607996821E-1,9.016563416E0,3.794809580E0
1.953241960E0,-6.679822803E-1,8.951920509E0,3.854664803E0
1.956127260E0,-7.206547260E-1,8.927978516E0,3.883395195E0
1.957331422E0,-8.140285611E-1,8.947132111E0,3.921702385E0
1.960228452E0,-9.145850539E-1,8.966285706E0,3.981557369E0
1.961563575E0,-9.744400978E-1,8.961497307E0,4.024652958E0
1.964010191E0,-9.648633003E-1,8.949525833E0,4.065354347E0
1.965451729E0,-9.145850539E-1,8.944737434E0,4.072536945E0
1.968104806E0,-8.738836050E-1,8.942343712E0,4.034229755E0
1.969531999E0,-8.523358107E-1,8.944737434E0,3.993528366E0
1.971946498E0,-8.451532125E-1,8.956708908E0,3.976768970E0
1.973679114E0,-8.523358107E-1,8.956708908E0,3.986345768E0
1.976091460E0,-8.762778044E-1,8.939949036E0,4.015076160E0
1.977765345E0,-8.882488012E-1,8.923190117E0,4.022258759E0
1.980296691E0,-8.954314590E-1,8.913613319E0,3.993528366E0
1.982072691E0,-8.882488012E-1,8.918401718E0,3.960009575E0
1.984255729E0,-8.667010069E-1,8.930372238E0,3.933673382E0
1.985875883E0,-8.403648138E-1,8.927978516E0,3.919308186E0
1.988314806E0,-8.188169599E-1,8.920795441E0,3.883395195E0
1.990051306E0,-8.116343617E-1,8.927978516E0,3.818751812E0
1.992314498E0,-8.044517636E-1,8.959102631E0,3.742137194E0
1.994053498E0,-8.259995580E-1,9.002198219E0,3.653551817E0
1.996437460E0,-8.738836050E-1,9.011775017E0,3.612850428E0
1.998146537E0,-9.217676520E-1,9.016563416E0,3.586514235E0
2.000633383E0,-9.457096457E-1,9.023746490E0,3.593696833E0
2.002538537E0,-9.337386489E-1,9.038111687E0,3.622427225E0
2.004654345E0,-8.834604025E-1,9.038111687E0,3.632004023E0
2.006437345E0,-8.020575643E-1,9.026140213E0,3.620033026E0
2.008984075E0,-7.086837292E-1,9.009381294E0,3.627215624E0
2.010418422E0,-6.320692301E-1,8.983044624E0,3.663128614E0
2.013268606E0,-6.081272364E-1,8.954314232E0,3.708618402E0
2.014560845E0,-6.368576288E-1,8.949525833E0,3.763684988E0
2.017366498E0,-6.991068721E-1,8.968679428E0,3.816357613E0
2.018580998E0,-7.900865674E-1,8.975862503E0,3.866635799E0
2.021471337E0,-8.834604025E-1,8.961497307E0,3.940855980E0
2.022878652E0,-9.433154464E-1,8.935160637E0,4.024652958E0
2.025520529E0,-9.457096457E-1,8.920795441E0,4.113238335E0
2.026669075E0,-9.217676520E-1,8.911218643E0,4.189853191E0
2.029586567E0,-8.906430602E-1,8.904036522E0,4.218583584E0
2.030777460E0,-8.451532125E-1,8.906430244E0,4.194641590E0
2.033687683E0,-7.829039693E-1,8.916007042E0,4.158728123E0
2.034871306E0,-7.302315235E-1,8.916007042E0,4.139574528E0
2.037788837E0,-6.895300746E-1,8.908824921E0,4.103661537E0
2.039012806E0,-6.679822803E-1,8.911218643E0,4.024652958E0
2.041890337E0,-6.847416759E-1,8.939949036E0,3.926490784E0
2.043479422E0,-7.733271718E-1,9.014169693E0,3.804386616E0
2.045687614E0,-8.044517636E-1,9.035717010E0,3.770867586E0
2.047126652E0,-8.667010069E-1,9.069235802E0,3.715801001E0
2.049805845E0,-9.217676520E-1,9.105149269E0,3.665522814E0
2.051315575E0,-9.433154464E-1,9.131484985E0,3.600879431E0
2.053761383E0,-9.097966552E-1,9.119514465E0,3.548206806E0
2.055349229E0,-8.523358107E-1,9.088389397E0,3.536235809E0
2.057715075E0,-7.852981687E-1,9.045293808E0,3.552995205E0
2.059501422E0,-7.398083210E-1,9.021351814E0,3.600879431E0
2.061841268E0,-7.302315235E-1,9.011775017E0,3.670311213E0
2.063782960E0,-7.422025204E-1,9.006986618E0,3.744531393E0
2.065851037E0,-7.565677166E-1,9.016563416E0,3.806780815E0
2.067549152E0,-7.469909191E-1,9.011775017E0,3.852270603E0
2.069973422E0,-7.350199223E-1,8.999804497E0,3.890577793E0
2.071593306E0,-7.350199223E-1,8.985439301E0,3.916913986E0
2.073978268E0,-7.182605267E-1,8.973467827E0,3.914519787E0
2.075916114E0,-6.919242740E-1,8.997409821E0,3.890577793E0
2.078066960E0,-6.607996821E-1,9.050082207E0,3.871424198E0
2.080004575E0,-6.368576288E-1,9.059659004E0,3.837905407E0
2.082192729E0,-6.009446383E-1,9.033323288E0,3.801992416E0
2.084214460E0,-5.363011956E-1,9.021351814E0,3.782838583E0
2.086275498E0,-4.908113480E-1,9.023746490E0,3.773261786E0
2.087914575E0,-5.027823448E-1,9.026140213E0,3.761290789E0
2.090584037E0,-5.386953950E-1,9.035717010E0,3.727771997E0
2.092090114E0,-5.889736414E-1,9.064447403E0,3.691859007E0
2.094894921E0,-6.560112834E-1,9.100360870E0,3.689464808E0
2.096085498E0,-7.015010715E-1,9.097966194E0,3.694253206E0
2.098989921E0,-6.895300746E-1,9.100360870E0,3.715801001E0
2.100200037E0,-6.368576288E-1,9.095572472E0,3.727771997E0
2.103107336E0,-5.913678408E-1,9.054870605E0,3.713406801E0
2.104516921E0,-5.650315881E-1,9.021351814E0,3.730166197E0
2.107162490E0,-5.386953950E-1,8.985439301E0,3.773261786E0
2.108396421E0,-5.195417404E-1,8.966285706E0,3.854664803E0
2.111228952E0,-5.554547906E-1,8.923190117E0,3.897760391E0
2.112532037E0,-6.727706790E-1,8.846575737E0,3.876212597E0
2.115330413E0,-7.685387731E-1,8.925583839E0,3.940855980E0
2.116514075E0,-8.020575643E-1,9.045293808E0,4.022258759E0
2.119431644E0,-8.882488012E-1,9.016563416E0,4.043806553E0
2.120786575E0,-8.475474119E-1,8.961497307E0,4.082113743E0
2.123532644E0,-6.081272364E-1,8.870517731E0,4.007893562E0
2.124958421E0,-4.812345505E-1,8.872911453E0,4.055777550E0
2.127295152E0,-4.141969085E-1,8.827422142E0,3.979163170E0
2.128724460E0,-3.351882398E-1,8.786720276E0,3.790021181E0
2.131398460E0,-4.716577232E-1,8.863334656E0,3.806780815E0
2.132950460E0,-7.374141216E-1,9.002198219E0,3.940855980E0
2.135195575E0,-8.595184088E-1,9.016563416E0,3.924096584E0
2.136977114E0,-9.217676520E-1,8.959102631E0,3.825934410E0
2.139323421E0,-9.888052940E-1,8.992621422E0,3.847482204E0
2.141034383E0,-8.906430602E-1,9.009381294E0,3.835511208E0
2.143449498E0,-7.015010715E-1,8.990227699E0,3.794809580E0
2.145323498E0,-6.464344859E-1,8.901641846E0,3.734954596E0
2.147473152E0,-6.584054828E-1,8.827422142E0,3.713406801E0
2.149152845E0,-5.937620401E-1,8.913613319E0,3.801992416E0
2.151607575E0,-5.410895944E-1,8.975862503E0,3.828328609E0
2.153276460E0,-6.224924326E-1,8.932766914E0,3.792415380E0
2.155627614E0,-7.158663273E-1,8.880094528E0,3.806780815E0
2.157354229E0,-7.278373241E-1,8.913613319E0,3.892971992E0
2.159733921E0,-7.302315235E-1,8.942343712E0,3.991134167E0
2.161569883E0,-7.589619160E-1,8.908824921E0,3.995922565E0
2.163859614E0,-7.445967197E-1,8.913613319E0,3.974374771E0
2.165768345E0,-6.823474765E-1,8.956708908E0,3.986345768E0
2.167962229E0,-6.392518282E-1,8.973467827E0,4.024652958E0
2.169910114E0,-6.081272364E-1,8.908824921E0,4.048594952E0
2.172358537E0,-5.626373887E-1,8.822632790E0,4.067748547E0
2.173762768E0,-5.267243981E-1,8.779537201E0,4.094084740E0
2.176580721E0,-5.698199868E-1,8.820239067E0,4.091690540E0
2.177926268E0,-6.344634295E-1,8.899248123E0,4.072536945E0
2.180665114E0,-7.110779285E-1,8.963891029E0,4.039018154E0
2.181977037E0,-7.829039693E-1,8.980650902E0,3.981557369E0
2.184780836E0,-8.044517636E-1,8.963891029E0,3.921702385E0
2.186146268E0,-7.374141216E-1,8.963891029E0,3.895366192E0
2.188829490E0,-6.320692301E-1,8.975862503E0,3.854664803E0
2.189993114E0,-5.674257874E-1,8.973467827E0,3.780444384E0
2.192895144E0,-5.722141862E-1,8.983044624E0,3.694253206E0
2.194096921E0,-5.865794420E-1,9.035717010E0,3.620033026E0
2.196996028E0,-5.889736414E-1,9.129091263E0,3.555389643E0
2.198185498E0,-5.674257874E-1,9.200917244E0,3.469198227E0
2.201096874E0,-5.386953950E-1,9.215282440E0,3.342305660E0
2.202306652E0,-5.003881454E-1,9.208099365E0,3.232172251E0
2.205197182E0,-4.596867263E-1,9.215282440E0,3.088520288E0
2.206616768E0,-4.620809257E-1,9.282320023E0,3.014299870E0
2.209005075E0,-4.764461517E-1,9.332598686E0,3.043030262E0
2.210468921E0,-4.357447028E-1,9.299078941E0,3.169923067E0
2.213096921E0,-3.543418646E-1,9.205705643E0,3.411737442E0
2.214619498E0,-2.513911724E-1,9.066842079E0,3.763684988E0
2.216844152E0,-1.628057212E-1,8.937555313E0,4.134786129E0
2.218702998E0,-1.723825186E-1,8.872911453E0,4.448426723E0
2.220983306E0,-2.920926213E-1,8.841787338E0,4.661510944E0
2.222711421E0,-4.333505034E-1,8.827422142E0,4.819528103E0
2.225103344E0,-5.434837937E-1,8.827422142E0,4.862623692E0
2.226992729E0,-6.296750307E-1,8.868123055E0,4.757278919E0
2.229134729E0,-6.799532771E-1,8.956708908E0,4.532223701E0
2.230933421E0,-6.775590777E-1,9.047688484E0,4.220977783E0
2.233315114E0,-6.296750307E-1,9.121908188E0,3.916913986E0
2.235082460E0,-5.578489900E-1,9.169792175E0,3.651157618E0
2.237319575E0,-3.902548850E-1,9.349357605E0,3.296815634E0
2.239048191E0,-2.322375625E-1,9.425971985E0,3.081337690E0
2.241469421E0,-1.651999205E-1,9.358934402E0,2.803610086E0
2.243291229E0,-1.556231081E-1,9.351752281E0,2.726995707E0
2.245550037E0,-1.125274822E-1,9.382876396E0,2.705447912E0
2.247453614E0,-1.628057212E-1,9.445125580E0,2.789244890E0
2.249640383E0,-3.112462163E-1,9.461885452E0,2.928108692E0
2.251230691E0,-3.902548850E-1,9.397241592E0,2.985569477E0
2.253949844E0,-4.237737060E-1,9.375694275E0,3.136404276E0
2.255334575E0,-4.333505034E-1,9.361329079E0,3.320757866E0
2.258218759E0,-3.998316824E-1,9.301473618E0,3.488351822E0
2.259431498E0,-3.663128614E-1,9.203310966E0,3.687070608E0
2.262318413E0,-3.351882398E-1,9.112331390E0,3.878606796E0
2.263625883E0,-2.825157940E-1,9.083600998E0,4.046200752E0
2.266418143E0,-1.915361285E-1,9.085995674E0,4.156333923E0
2.267816998E0,-7.900865376E-2,9.059659004E0,4.192247391E0
2.270467066E0,3.112462163E-2,9.011775017E0,4.206612587E0
2.271796421E0,9.576806426E-2,8.947132111E0,4.192247391E0
2.274533066E0,6.703764945E-2,8.904036522E0,4.125209332E0
2.275833921E0,-8.379705995E-2,8.937555313E0,3.998316765E0
2.278634182E0,-3.351882398E-1,9.052476883E0,3.811569214E0
2.280051460E0,-6.105214357E-1,9.215282440E0,3.627215624E0
2.282734451E0,-8.307880163E-1,9.334992409E0,3.495534420E0
2.284040960E0,-9.648633003E-1,9.344569206E0,3.397372246E0
2.286834797E0,-9.959878922E-1,9.294290543E0,3.366247654E0
2.288498152E0,-8.331822157E-1,9.253589630E0,3.349488258E0
2.290683691E0,-7.398083210E-1,9.241618156E0,3.330334663E0
2.292240844E0,-5.291185975E-1,9.208099365E0,3.280056238E0
2.294882537E0,-3.064578176E-1,9.179368973E0,3.277662039E0
2.296307306E0,-4.070143029E-2,9.129091263E0,3.313575268E0
2.298582652E0,1.532289088E-1,9.085995674E0,3.452438831E0
2.300317229E0,1.915361360E-2,9.090784073E0,3.490746021E0
2.302746460E0,-2.011129409E-1,9.138668060E0,3.552995205E0
2.304451729E0,-4.333505034E-1,9.205705643E0,3.641580820E0
2.306829306E0,-6.560112834E-1,9.241618156E0,3.727771997E0
2.308784691E0,-8.379706144E-1,9.255983353E0,3.809175014E0
2.310849614E0,-9.313444495E-1,9.236829758E0,3.842693806E0
2.312514537E0,-9.169792533E-1,9.210494041E0,3.833117008E0
2.314962537E0,-8.020575643E-1,9.172186852E0,3.845088005E0
2.316710575E0,-6.177040339E-1,9.117119789E0,3.890577793E0
2.318991191E0,-3.687070608E-1,9.016563416E0,4.043806553E0
2.320859344E0,-1.771709323E-1,8.920795441E0,4.340687752E0
2.323475575E0,-1.556231081E-1,8.815450668E0,4.508281708E0
2.324866267E0,-2.274491638E-1,8.640673637E0,4.450820923E0
2.327342383E0,-3.423708379E-1,8.537723541E0,4.340687752E0
2.329117152E0,-5.147533417E-1,8.607154846E0,4.228160381E0
2.331374383E0,-7.805097699E-1,8.889671326E0,4.036623955E0
2.332945460E0,-1.230619669E0,9.208099365E0,3.632004023E0
2.335615037E0,-1.714248419E0,9.411606789E0,3.167528868E0
2.337013691E0,-1.929726601E0,9.533711433E0,2.755726099E0
2.339904605E0,-1.850717902E0,9.574412346E0,2.466027737E0
2.341134652E0,-1.611297727E0,9.512163162E0,2.272097349E0
2.344004451E0,-1.221042871E0,9.356540680E0,2.056619167E0
2.345207729E0,-8.068459630E-1,9.246406555E0,2.013523579E0
2.348103758E0,-5.099649429E-1,9.191340446E0,2.229001760E0
2.349497075E0,-3.567360640E-1,9.167398453E0,2.595314741E0
2.352152797E0,-3.399766386E-1,9.143456459E0,2.999934673E0
2.353368383E0,-4.309563041E-1,9.066842079E0,3.337517262E0
2.356218028E0,-5.746083856E-1,8.942343712E0,3.651157618E0
2.357557767E0,-8.331822157E-1,8.700529099E0,3.969586372E0
2.360318489E0,-1.218648672E0,8.580819130E0,5.102043629E0
2.361578037E0,-1.594538331E0,8.487444878E0,6.093243122E0
2.364419374E0,-1.991975784E0,8.197746277E0,6.279991150E0
2.365644614E0,-2.157175779E0,8.190564156E0,5.985504150E0
2.368520297E0,-1.903390408E0,8.793902397E0,5.659893036E0
2.370005229E0,-1.285686255E0,9.540893555E0,5.872976780E0
2.372351460E0,-9.097966552E-1,8.987833023E0,5.430049419E0
2.373733921E0,-9.600749016E-1,8.010998726E0,4.060565948E0
2.376386191E0,-6.607996821E-1,8.200140953E0,2.825158119E0
2.377826075E0,1.436521020E-2,9.375694275E0,2.391807556E0
2.380201921E0,4.788403213E-2,1.002691650E1,2.327163935E0
2.381937883E0,-5.554547906E-1,9.595960617E0,1.956062794E0
2.384364267E0,-1.034295082E0,9.337387085E0,1.762132406E0
2.386123883E0,-1.204283476E0,9.730035782E0,1.843535304E0
2.388445383E0,-1.400607944E0,1.001973438E1,1.644816518E0
2.390336344E0,-1.628057122E0,9.892841339E0,1.323993564E0
2.392462806E0,-1.527500629E0,9.634267807E0,1.453280449E0
2.394137537E0,-1.170764685E0,9.430760384E0,2.126051188E0
2.396714575E0,-1.005564690E0,9.217676163E0,2.887407303E0
2.398272037E0,-1.041477680E0,9.066842079E0,3.296815634E0
2.400689614E0,-9.959878922E-1,9.155426979E0,3.497928619E0
2.402390575E0,-8.116343617E-1,9.220070839E0,3.734954596E0
2.404933614E0,-6.655880809E-1,8.889671326E0,4.058171749E0
2.406519690E0,-6.775590777E-1,8.396465302E0,4.623203278E0
2.408839229E0,-8.331822157E-1,8.267178535E0,5.315127850E0
2.410704614E0,-1.146822572E0,8.494627953E0,5.698200226E0
2.412925767E0,-1.580173135E0,8.698134422E0,5.408501625E0
2.414550883E0,-1.881842494E0,8.719682693E0,4.795586109E0
2.417239806E0,-1.757344007E0,8.772355080E0,4.537012100E0
2.418713344E0,-1.055842996E0,8.925583839E0,4.797980309E0
2.421561950E0,-8.212111592E-1,8.791508675E0,4.568136692E0
2.422777383E0,-8.786720037E-1,8.647856712E0,3.928884983E0
2.425654537E0,-9.648633003E-1,8.793902397E0,3.383007050E0
2.426879960E0,-9.385270476E-1,9.138668060E0,3.284844637E0
2.429768720E0,-8.738836050E-1,9.315838814E0,3.426102638E0
2.431126344E0,-9.097966552E-1,9.232041359E0,3.505111217E0
2.433798114E0,-1.029506683E0,9.141061783E0,3.497928619E0
2.434963652E0,-1.146822572E0,9.174580574E0,3.476380825E0
2.437864460E0,-1.201889277E0,9.196128845E0,3.481169224E0
2.439092460E0,-1.060631394E0,9.095572472E0,3.519476414E0
2.441990297E0,-6.823474765E-1,8.956708908E0,3.620033026E0
2.443165267E0,-1.867477298E-1,8.882488251E0,3.689464808E0
2.446065614E0,2.035071403E-1,8.870517731E0,3.572149038E0
2.447282537E0,3.280056417E-1,8.911218643E0,3.313575268E0
2.450195950E0,2.130839527E-1,9.018958092E0,3.112462282E0
2.451636575E0,-2.873042040E-2,9.160215378E0,3.143586874E0
2.454073652E0,-3.232172430E-1,9.251194954E0,3.349488258E0
2.455370190E0,-6.368576288E-1,9.299078941E0,3.519476414E0
2.458070152E0,-9.289502501E-1,9.339780807E0,3.574543238E0
2.459499114E0,-1.118092179E0,9.358934402E0,3.545812607E0
2.461941575E0,-1.113303781E0,9.270348549E0,3.497928619E0
2.463638229E0,-8.738836050E-1,9.097966194E0,3.552995205E0
2.465966075E0,-4.644751251E-1,8.954314232E0,3.739742994E0
2.467726729E0,-4.070143029E-2,8.875306129E0,3.960009575E0
2.470099806E0,2.011129409E-1,8.810662270E0,4.058171749E0
2.471963344E0,1.651999205E-1,8.726864815E0,4.036623955E0
2.474098075E0,-2.154781483E-2,8.700529099E0,4.067748547E0
2.475792690E0,-2.082955539E-1,8.781931877E0,4.201824188E0
2.478263960E0,-4.094084799E-1,8.959102631E0,4.326322556E0
2.479993421E0,-5.123591423E-1,9.028534889E0,4.201824188E0
2.482272075E0,-5.817909837E-1,9.097966194E0,3.983951569E0
2.484025498E0,-5.937620401E-1,9.148244858E0,3.794809580E0
2.486384383E0,-5.315127969E-1,9.100360870E0,3.651157618E0
2.488124844E0,-4.261679053E-1,8.997409821E0,3.581725836E0
2.490531729E0,-3.256114423E-1,8.968679428E0,3.579331636E0
2.492408267E0,-2.992752194E-1,9.042900085E0,3.593696833E0
2.494635267E0,-4.094084799E-1,9.119514465E0,3.591302633E0
2.496216460E0,-5.961562395E-1,9.102754593E0,3.596091032E0
2.498923883E0,-7.230489254E-1,9.030928612E0,3.703830004E0
2.500319306E0,-7.086837292E-1,8.980650902E0,3.919308186E0
2.503238989E0,-5.985504389E-1,8.954314232E0,4.101267338E0
2.504431960E0,-4.955997467E-1,8.959102631E0,4.110844135E0
2.507327960E0,-4.381389022E-1,8.990227699E0,3.988739967E0
2.508503960E0,-4.046200812E-1,9.045293808E0,3.881000996E0
2.511442383E0,-3.830722570E-1,9.066842079E0,3.849876404E0
2.512780806E0,-3.663128614E-1,9.038111687E0,3.859453201E0
2.515494412E0,-3.375824392E-1,9.028534889E0,3.842693806E0
2.516689190E0,-3.184288144E-1,9.066842079E0,3.780444384E0
2.519534844E0,-3.495534360E-1,9.119514465E0,3.715801001E0
2.520739960E0,-4.189853072E-1,9.133879662E0,3.682282209E0
2.523634075E0,-5.027823448E-1,9.107542992E0,3.711012602E0
2.524826383E0,-5.865794420E-1,9.150638580E0,3.770867586E0
2.527730383E0,-6.799532771E-1,9.311050415E0,3.564966440E0
2.528934113E0,-7.086837292E-1,9.299078941E0,3.320757866E0
2.531868758E0,-5.458779931E-1,9.083600998E0,3.526659012E0
2.533556460E0,-8.858546615E-2,8.892065048E0,4.065354347E0
2.535710306E0,-8.379705995E-2,8.870517731E0,4.242525578E0
2.537148152E0,-2.896983922E-1,8.801085472E0,4.237737179E0
2.539840075E0,-4.525041282E-1,8.841787338E0,4.352658749E0
2.541270190E0,-5.386953950E-1,8.954314232E0,4.599261284E0
2.543563998E0,-6.177040339E-1,8.956708908E0,4.723760128E0
2.545283998E0,-6.823474765E-1,8.872911453E0,4.644751072E0
2.547761575E0,-6.799532771E-1,8.827422142E0,4.465186119E0
2.549491190E0,-6.153098345E-1,8.858546257E0,4.326322556E0
2.551833998E0,-5.386953950E-1,8.913613319E0,4.240131378E0
2.553673460E0,-4.908113480E-1,8.959102631E0,4.115632534E0
2.555801075E0,-4.812345505E-1,9.023746490E0,3.948038578E0
2.557517113E0,-5.099649429E-1,9.109937668E0,3.749319792E0
2.559991075E0,-5.482721925E-1,9.153033257E0,3.548206806E0
2.561621152E0,-5.339069963E-1,9.117119789E0,3.416525841E0
2.564003998E0,-4.908113480E-1,9.054870605E0,3.411737442E0
2.565750613E0,-4.548983276E-1,9.033323288E0,3.481169224E0
2.568153267E0,-4.692635238E-1,9.057265282E0,3.526659012E0
2.569848537E0,-5.530605912E-1,9.081207275E0,3.529053211E0
2.572247152E0,-6.631938815E-1,9.107542992E0,3.552995205E0
2.574087690E0,-7.062895298E-1,9.112331390E0,3.653551817E0
2.576308575E0,-6.512228847E-1,9.064447403E0,3.797203779E0
2.577923037E0,-5.578489900E-1,8.975862503E0,3.933673382E0
2.580643421E0,-4.620809257E-1,8.916007042E0,4.039018154E0
2.582031690E0,-3.806780577E-1,8.904036522E0,4.103661537E0
2.584949258E0,-3.112462163E-1,8.906430244E0,4.129997730E0
2.586198383E0,-2.513911724E-1,8.911218643E0,4.125209332E0
2.589010575E0,-1.867477298E-1,8.916007042E0,4.110844135E0
2.590216306E0,-1.484405100E-1,8.947132111E0,4.096478939E0
2.593151565E0,-1.987187415E-1,8.990227699E0,3.981557369E0
2.594480537E0,-2.920926213E-1,9.016563416E0,3.861847401E0
2.597165498E0,-4.165911078E-1,9.050082207E0,3.780444384E0
2.598344306E0,-5.099649429E-1,9.097966194E0,3.761290789E0
2.601272488E0,-5.482721925E-1,9.138668060E0,3.746925592E0
2.602540190E0,-5.410895944E-1,9.162610054E0,3.715801001E0
2.605358344E0,-4.836287498E-1,9.157821655E0,3.682282209E0
2.606543344E0,-3.806780577E-1,9.136273384E0,3.660734415E0
2.609476027E0,-2.777273953E-1,9.088389397E0,3.658340216E0
2.610649306E0,-2.011129409E-1,9.040505409E0,3.672705412E0
2.613578104E0,-1.508347094E-1,9.023746490E0,3.792415380E0
2.614920652E0,-1.556231081E-1,9.045293808E0,3.670311213E0
2.617407383E0,-2.609679997E-1,9.062053680E0,3.876212597E0
2.618784883E0,-3.447650373E-1,9.057265282E0,3.883395195E0
2.621488460E0,-4.620809257E-1,9.076418877E0,3.773261786E0
2.622854613E0,-6.009446383E-1,9.074024200E0,4.108449936E0
2.625260883E0,-5.865794420E-1,9.009381294E0,3.926490784E0
2.626954690E0,-6.129156351E-1,9.002198219E0,4.204218388E0
2.629313883E0,-5.458779931E-1,8.959102631E0,4.137180328E0
2.631070690E0,-5.027823448E-1,8.911218643E0,4.144362926E0
2.633526767E0,-4.309563041E-1,8.942343712E0,4.357447147E0
2.635415075E0,-3.303998411E-1,8.858546257E0,4.168305397E0
2.637553229E0,-3.016694188E-1,8.870517731E0,4.393360138E0
2.639295844E0,-2.370259613E-1,8.856152534E0,4.290409565E0
2.641654036E0,-2.346317619E-1,8.846575737E0,4.333505154E0
2.643296998E0,-2.394201756E-1,8.908824921E0,4.347870350E0
2.645678421E0,-2.681505978E-1,8.877699852E0,4.194641590E0
2.647399806E0,-3.208230138E-1,8.935160637E0,4.278438568E0
2.649775652E0,-3.351882398E-1,8.932766914E0,4.137180328E0
2.651553652E0,-3.687070608E-1,8.956708908E0,4.141968727E0
2.653917075E0,-3.663128614E-1,9.021351814E0,3.974374771E0
2.655875113E0,-3.567360640E-1,9.050082207E0,3.986345768E0
2.658001113E0,-3.280056417E-1,9.050082207E0,3.883395195E0
2.659608190E0,-3.040636182E-1,9.030928612E0,3.861847401E0
2.662285960E0,-2.609679997E-1,9.045293808E0,3.842693806E0
2.663765613E0,-2.442085743E-1,9.035717010E0,3.785232782E0
2.666629180E0,-2.489969730E-1,9.078812599E0,3.801992416E0
2.667870190E0,-2.753331959E-1,9.078812599E0,3.734954596E0
2.670731180E0,-3.256114423E-1,9.093177795E0,3.775655985E0
2.671893536E0,-3.567360640E-1,9.102754593E0,3.782838583E0
2.674833373E0,-3.878606856E-1,9.081207275E0,3.835511208E0
2.676199498E0,-4.141969085E-1,9.105149269E0,3.849876404E0
2.678856306E0,-4.764461517E-1,9.143456459E0,3.785232782E0
2.680002344E0,-5.291185975E-1,9.172186852E0,3.756502390E0
2.682950026E0,-4.932055473E-1,9.131484985E0,3.766079187E0
2.684284575E0,-3.711012602E-1,9.066842079E0,3.866635799E0
2.687052026E0,-2.322375625E-1,9.011775017E0,3.931279182E0
2.688211383E0,-1.508347094E-1,8.956708908E0,3.991134167E0
2.691109998E0,-1.340752989E-1,8.939949036E0,4.019864559E0
2.692345383E0,-2.106897533E-1,8.932766914E0,4.098873138E0
2.695255488E0,-3.136404157E-1,8.937555313E0,4.204218388E0
2.696590690E0,-4.118026793E-1,8.942343712E0,4.280832767E0
2.699032190E0,-4.908113480E-1,8.954314232E0,4.338293552E0
2.700559421E0,-5.410895944E-1,8.961497307E0,4.323928356E0
2.703114113E0,-5.458779931E-1,8.951920509E0,4.283226967E0
2.704570190E0,-4.979939461E-1,8.947132111E0,4.209006786E0
2.706909113E0,-4.381389022E-1,8.932766914E0,4.163516521E0
2.708638421E0,-3.830722570E-1,8.925583839E0,4.113238335E0
2.711000383E0,-3.543418646E-1,8.925583839E0,4.072536945E0
2.712698690E0,-3.232172430E-1,8.947132111E0,3.974374771E0
2.715169960E0,-3.327940404E-1,8.956708908E0,3.952826977E0
2.717092421E0,-3.615244627E-1,8.959102631E0,3.950432777E0
2.719195267E0,-3.998316824E-1,8.947132111E0,3.981557369E0
2.720869998E0,-4.309563041E-1,8.932766914E0,4.017470360E0
2.723313690E0,-4.429273009E-1,8.927978516E0,4.027047157E0
2.725056613E0,-4.668693244E-1,8.932766914E0,4.053383350E0
2.727456344E0,-4.740519226E-1,8.937555313E0,4.050989151E0
2.729287690E0,-4.525041282E-1,8.935160637E0,4.084507942E0
2.731459959E0,-4.357447028E-1,8.925583839E0,4.120420933E0
2.733172229E0,-4.357447028E-1,8.906430244E0,4.163516521E0
2.736015306E0,-4.237737060E-1,8.887276649E0,4.192247391E0
2.737427959E0,-4.165911078E-1,8.882488251E0,4.206612587E0
2.739795459E0,-4.141969085E-1,8.877699852E0,4.211400986E0
2.741309383E0,-4.022258818E-1,8.875306129E0,4.235342979E0
2.743919075E0,-4.046200812E-1,8.875306129E0,4.254496574E0
2.745301267E0,-4.333505034E-1,8.880094528E0,4.237737179E0
2.748241949E0,-4.525041282E-1,8.892065048E0,4.197035789E0
2.749438459E0,-4.644751251E-1,8.908824921E0,4.139574528E0
2.752345218E0,-4.620809257E-1,8.930372238E0,4.091690540E0
2.753539575E0,-4.548983276E-1,8.951920509E0,4.034229755E0
2.756447718E0,-4.620809257E-1,9.035717010E0,3.950432777E0
2.757807767E0,-4.237737060E-1,9.100360870E0,3.763684988E0
2.760472113E0,-2.705447972E-1,8.990227699E0,3.696647406E0
2.761809498E0,-1.843535304E-1,8.913613319E0,3.907337189E0
2.764492075E0,-1.771709323E-1,8.884882927E0,3.983951569E0
2.765658267E0,-2.130839527E-1,8.942343712E0,3.833117008E0
2.768568180E0,-3.423708379E-1,9.071630478E0,3.677493811E0
2.769766690E0,-4.979939461E-1,9.121908188E0,3.629609823E0
2.772669834E0,-5.626373887E-1,9.131484985E0,3.739742994E0
2.773857036E0,-5.746083856E-1,9.107542992E0,3.878606796E0
2.776770949E0,-5.793967843E-1,9.038111687E0,3.876212597E0
2.778367229E0,-5.291185975E-1,9.009381294E0,3.773261786E0
2.780601459E0,-4.405331016E-1,9.023746490E0,3.780444384E0
2.782025921E0,-3.758896589E-1,8.987833023E0,3.924096584E0
2.784760306E0,-3.830722570E-1,8.927978516E0,4.101267338E0
2.786215690E0,-4.285621047E-1,8.896853447E0,4.209006786E0
2.788494613E0,-5.003881454E-1,8.932766914E0,4.177882195E0
2.790199421E0,-5.793967843E-1,8.975862503E0,4.079719543E0
2.792581075E0,-6.224924326E-1,8.968679428E0,4.046200752E0
2.794286921E0,-6.224924326E-1,8.927978516E0,4.125209332E0
2.796727498E0,-6.129156351E-1,8.880094528E0,4.256890774E0
2.798591306E0,-6.248866320E-1,8.846575737E0,4.316745758E0
2.800784959E0,-6.416460276E-1,8.856152534E0,4.268861771E0
2.802430921E0,-6.272808313E-1,8.899248123E0,4.165910721E0
2.804864459E0,-5.770025849E-1,8.920795441E0,4.103661537E0
2.806521959E0,-5.339069963E-1,8.913613319E0,4.122815132E0
2.808882306E0,-5.291185975E-1,8.870517731E0,4.151545525E0
2.810608306E0,-5.770025849E-1,8.860940933E0,4.146757126E0
2.812990306E0,-6.560112834E-1,8.899248123E0,4.072536945E0
2.814800729E0,-7.086837292E-1,8.963891029E0,3.952826977E0
2.817225498E0,-6.991068721E-1,9.021351814E0,3.876212597E0
2.819124344E0,-6.488286853E-1,9.023746490E0,3.878606796E0
2.821277267E0,-5.865794420E-1,8.997409821E0,3.921702385E0
2.822838306E0,-5.363011956E-1,8.961497307E0,3.928884983E0
2.825503036E0,-5.195417404E-1,8.942343712E0,3.873818398E0
2.826904652E0,-5.243301988E-1,8.963891029E0,3.809175014E0
2.829849487E0,-5.291185975E-1,8.990227699E0,3.785232782E0
2.831051652E0,-5.386953950E-1,9.016563416E0,3.818751812E0
2.833950641E0,-5.650315881E-1,9.016563416E0,3.881000996E0
2.835219229E0,-5.961562395E-1,9.006986618E0,3.914519787E0
2.838052487E0,-6.320692301E-1,9.014169693E0,3.885789394E0
2.839393729E0,-6.105214357E-1,9.014169693E0,3.840299606E0
2.842107564E0,-5.817909837E-1,9.011775017E0,3.840299606E0
2.843252344E0,-5.626373887E-1,8.997409821E0,3.892971992E0
2.846149113E0,-5.674257874E-1,9.004592896E0,3.938461781E0
2.847450998E0,-6.296750307E-1,9.011775017E0,3.909731388E0
2.850274564E0,-6.871358752E-1,9.014169693E0,3.837905407E0
2.851509767E0,-7.134721279E-1,9.030928612E0,3.818751812E0
2.854376257E0,-6.967126727E-1,9.030928612E0,3.857059002E0
2.855567652E0,-6.607996821E-1,9.023746490E0,3.916913986E0
2.858477910E0,-6.560112834E-1,8.992621422E0,3.940855980E0
2.859797382E0,-6.943184733E-1,8.983044624E0,3.931279182E0
2.862242498E0,-7.422025204E-1,9.023746490E0,3.926490784E0
2.863674229E0,-7.900865674E-1,9.064447403E0,3.933673382E0
2.866397921E0,-7.948749661E-1,9.030928612E0,3.904942989E0
2.867769921E0,-7.517793179E-1,8.980650902E0,3.897760391E0
2.870119036E0,-6.967126727E-1,8.971074104E0,3.919308186E0
2.871864575E0,-6.679822803E-1,8.987833023E0,3.916913986E0
2.874207536E0,-6.775590777E-1,9.002198219E0,3.883395195E0
2.875933921E0,-6.919242740E-1,9.009381294E0,3.842693806E0
2.878466190E0,-6.871358752E-1,9.030928612E0,3.837905407E0
2.880221536E0,-6.751648784E-1,9.052476883E0,3.852270603E0
2.882480536E0,-6.847416759E-1,9.050082207E0,3.833117008E0
2.884113575E0,-7.254431248E-1,9.033323288E0,3.799597979E0
2.886543690E0,-7.493851185E-1,9.030928612E0,3.780444384E0
2.888170959E0,-7.517793179E-1,9.028534889E0,3.773261786E0
2.890528882E0,-7.254431248E-1,9.016563416E0,3.768473387E0
2.892269344E0,-6.895300746E-1,9.011775017E0,3.766079187E0
2.894621382E0,-6.679822803E-1,9.023746490E0,3.761290789E0
2.896377690E0,-6.655880809E-1,9.030928612E0,3.744531393E0
2.898791113E0,-7.015010715E-1,9.016563416E0,3.708618402E0
2.900685998E0,-7.206547260E-1,9.009381294E0,3.713406801E0
2.902989882E0,-7.230489254E-1,9.011775017E0,3.754108191E0
2.904531921E0,-7.398083210E-1,9.021351814E0,3.761290789E0
2.907162844E0,-7.709329724E-1,9.028534889E0,3.708618402E0
2.908664767E0,-8.044517636E-1,9.042900085E0,3.663128614E0
2.911481806E0,-8.164227605E-1,9.059659004E0,3.648763418E0
2.912688459E0,-8.044517636E-1,9.059659004E0,3.658340216E0
2.915612987E0,-7.781155705E-1,9.047688484E0,3.672705412E0
2.916822075E0,-7.445967197E-1,9.040505409E0,3.675099611E0
2.919714756E0,-7.302315235E-1,9.040505409E0,3.667917013E0
2.921067421E0,-7.374141216E-1,9.033323288E0,3.677493811E0
2.923722882E0,-7.685387731E-1,9.016563416E0,3.711012602E0
2.924909075E0,-8.092401624E-1,9.016563416E0,3.766079187E0
2.927781459E0,-8.188169599E-1,9.021351814E0,3.821146011E0
2.928982459E0,-8.283938169E-1,9.023746490E0,3.840299606E0
2.931928229E0,-8.475474119E-1,9.014169693E0,3.845088005E0
2.933177806E0,-8.403648138E-1,8.990227699E0,3.857059002E0
2.936022498E0,-7.996633649E-1,8.971074104E0,3.888183594E0
2.937225959E0,-7.589619160E-1,8.954314232E0,3.936067581E0
2.940138718E0,-7.302315235E-1,8.937555313E0,3.964797974E0
2.941454767E0,-7.158663273E-1,8.954314232E0,3.971980572E0
2.943866459E0,-7.134721279E-1,8.983044624E0,3.957615376E0
2.945322305E0,-7.326257229E-1,8.995016098E0,3.928884983E0
2.948031882E0,-7.469909191E-1,8.997409821E0,3.919308186E0
2.949474036E0,-7.398083210E-1,8.992621422E0,3.912125587E0
2.951831844E0,-7.230489254E-1,8.997409821E0,3.895366192E0
2.953535805E0,-7.086837292E-1,9.009381294E0,3.861847401E0
2.955907959E0,-6.895300746E-1,9.018958092E0,3.816357613E0
2.957602959E0,-6.895300746E-1,9.033323288E0,3.782838583E0
2.960042729E0,-7.062895298E-1,9.040505409E0,3.751713991E0
2.961909305E0,-7.182605267E-1,9.047688484E0,3.763684988E0
2.964045344E0,-7.398083210E-1,9.040505409E0,3.782838583E0
2.965785075E0,-7.541735172E-1,9.045293808E0,3.785232782E0
2.968237459E0,-7.613561153E-1,9.052476883E0,3.794809580E0
2.969947229E0,-7.613561153E-1,9.052476883E0,3.813963413E0
2.972212305E0,-7.517793179E-1,9.030928612E0,3.847482204E0
2.973935882E0,-7.326257229E-1,8.992621422E0,3.890577793E0
2.976301498E0,-7.158663273E-1,8.973467827E0,3.924096584E0
2.978036805E0,-7.086837292E-1,8.973467827E0,3.933673382E0
2.980448959E0,-7.134721279E-1,8.983044624E0,3.926490784E0
2.982381075E0,-7.302315235E-1,8.990227699E0,3.919308186E0
2.984612036E0,-7.469909191E-1,8.987833023E0,3.921702385E0
2.986235075E0,-7.565677166E-1,8.992621422E0,3.938461781E0
2.988866382E0,-7.565677166E-1,8.990227699E0,3.933673382E0
2.990261113E0,-7.589619160E-1,8.983044624E0,3.909731388E0
2.993157536E0,-7.661445141E-1,8.985439301E0,3.878606796E0
2.994362805E0,-7.637503147E-1,8.995016098E0,3.837905407E0
2.997290729E0,-7.565677166E-1,9.002198219E0,3.828328609E0
2.998464267E0,-7.733271718E-1,8.995016098E0,3.823540211E0
3.001394179E0,-7.900865674E-1,8.992621422E0,3.797203779E0
3.002797113E0,-8.068459630E-1,8.995016098E0,3.758896589E0
3.005414767E0,-8.164227605E-1,8.995016098E0,3.734954596E0
3.006582305E0,-8.140285611E-1,9.006986618E0,3.739742994E0
3.009510794E0,-8.116343617E-1,9.004592896E0,3.754108191E0
3.010684536E0,-8.044517636E-1,8.992621422E0,3.758896589E0
3.013578498E0,-7.924807668E-1,8.995016098E0,3.773261786E0
3.014813805E0,-7.709329724E-1,8.990227699E0,3.780444384E0
3.017713333E0,-7.589619160E-1,8.995016098E0,3.778050184E0
3.019097421E0,-7.589619160E-1,9.004592896E0,3.787626982E0
3.021815025E0,-7.541735172E-1,8.997409821E0,3.799597979E0
3.023403344E0,-7.565677166E-1,8.987833023E0,3.821146011E0
3.025608690E0,-7.565677166E-1,8.985439301E0,3.835511208E0
3.027047690E0,-7.541735172E-1,8.987833023E0,3.828328609E0
3.029725267E0,-7.565677166E-1,8.992621422E0,3.818751812E0
3.031241305E0,-7.661445141E-1,8.992621422E0,3.818751812E0
3.033560959E0,-7.900865674E-1,8.990227699E0,3.835511208E0
3.035252421E0,-8.212111592E-1,8.995016098E0,3.849876404E0
3.037643152E0,-8.475474119E-1,8.997409821E0,3.849876404E0
3.039353805E0,-8.690952063E-1,9.004592896E0,3.857059002E0
3.041813190E0,-8.810662031E-1,9.006986618E0,3.857059002E0
3.043634305E0,-8.930372596E-1,8.997409821E0,3.866635799E0
3.045770690E0,-8.954314590E-1,9.004592896E0,3.892971992E0
3.047490382E0,-8.954314590E-1,9.006986618E0,3.900154591E0
3.049971882E0,-8.954314590E-1,8.992621422E0,3.885789394E0
3.051611728E0,-9.002198577E-1,8.987833023E0,3.883395195E0
3.053947344E0,-8.882488012E-1,8.992621422E0,3.881000996E0
3.055736959E0,-8.786720037E-1,9.002198219E0,3.878606796E0
3.058048036E0,-8.810662031E-1,9.006986618E0,3.871424198E0
3.059779921E0,-8.858546019E-1,9.006986618E0,3.837905407E0
3.062182728E0,-8.858546019E-1,9.023746490E0,3.804386616E0
3.064066152E0,-8.762778044E-1,9.038111687E0,3.782838583E0
3.066303882E0,-8.643068075E-1,9.035717010E0,3.756502390E0
3.067911844E0,-8.523358107E-1,9.040505409E0,3.718195200E0
3.070583228E0,-8.427590132E-1,9.033323288E0,3.687070608E0
3.071988844E0,-8.451532125E-1,9.038111687E0,3.689464808E0
3.074896036E0,-8.643068075E-1,9.042900085E0,3.713406801E0
3.076087805E0,-8.834604025E-1,9.026140213E0,3.730166197E0
3.078999998E0,-9.026140571E-1,9.002198219E0,3.775655985E0
3.080167075E0,-9.097966552E-1,8.987833023E0,3.833117008E0
3.083112986E0,-9.074024558E-1,8.975862503E0,3.885789394E0
3.084489690E0,-9.026140571E-1,8.951920509E0,3.921702385E0
3.087151344E0,-8.954314590E-1,8.925583839E0,3.940855980E0
3.088306536E0,-8.834604025E-1,8.913613319E0,3.964797974E0
3.091236025E0,-8.738836050E-1,8.899248123E0,3.986345768E0
3.092512305E0,-8.667010069E-1,8.899248123E0,3.986345768E0
3.095337409E0,-8.595184088E-1,8.911218643E0,3.979163170E0
3.096499690E0,-8.571242094E-1,8.913613319E0,3.952826977E0
3.099438986E0,-8.667010069E-1,8.916007042E0,3.907337189E0
3.100723882E0,-8.930372596E-1,8.927978516E0,3.861847401E0
3.103541217E0,-9.313444495E-1,8.956708908E0,3.816357613E0
3.104879113E0,-9.457096457E-1,8.987833023E0,3.780444384E0
3.107442536E0,-9.433154464E-1,8.997409821E0,3.751713991E0
3.108709882E0,-9.457096457E-1,8.997409821E0,3.708618402E0
3.111370459E0,-9.385270476E-1,8.995016098E0,3.677493811E0
3.112790844E0,-9.576807022E-1,8.987833023E0,3.655946016E0
3.115200152E0,-1.017535686E0,8.995016098E0,3.679888010E0
3.116972305E0,-1.063025594E0,9.033323288E0,3.744531393E0
3.119333421E0,-1.046266198E0,9.040505409E0,3.792415380E0
3.121018421E0,-9.600749016E-1,8.997409821E0,3.794809580E0
3.123420459E0,-8.259995580E-1,8.937555313E0,3.790021181E0
3.125307921E0,-6.919242740E-1,8.892065048E0,3.809175014E0
3.127439421E0,-6.177040339E-1,8.887276649E0,3.857059002E0
3.129143998E0,-6.392518282E-1,8.904036522E0,3.881000996E0
3.131621228E0,-7.374141216E-1,8.944737434E0,3.895366192E0
3.133355190E0,-8.595184088E-1,8.999804497E0,3.907337189E0
3.135768036E0,-9.983820915E-1,9.045293808E0,3.890577793E0
3.137344959E0,-1.029506683E0,9.059659004E0,3.837905407E0
3.139775421E0,-1.007958889E0,9.054870605E0,3.766079187E0
3.141457036E0,-9.481038451E-1,9.052476883E0,3.691859007E0
3.143859575E0,-8.834604025E-1,9.062053680E0,3.603273630E0
3.145806536E0,-8.236053586E-1,9.066842079E0,3.543418407E0
3.147973190E0,-7.852981687E-1,9.076418877E0,3.521870613E0
3.149610998E0,-7.876923680E-1,9.078812599E0,3.536235809E0
3.152395805E0,-8.140285611E-1,9.062053680E0,3.572149038E0
3.153756651E0,-8.523358107E-1,9.052476883E0,3.620033026E0
3.156560305E0,-8.810662031E-1,9.045293808E0,3.670311213E0
3.157755536E0,-8.906430602E-1,9.035717010E0,3.727771997E0
3.160654190E0,-8.930372596E-1,9.021351814E0,3.768473387E0
3.161859151E0,-8.882488012E-1,8.997409821E0,3.799597979E0
3.164789102E0,-8.690952063E-1,8.973467827E0,3.821146011E0
3.166279998E0,-8.595184088E-1,8.956708908E0,3.854664803E0
3.168839678E0,-8.571242094E-1,8.937555313E0,3.885789394E0
3.169981613E0,-8.619126081E-1,8.920795441E0,3.907337189E0
3.172906986E0,-8.762778044E-1,8.911218643E0,3.933673382E0
3.174082575E0,-8.978256583E-1,8.896853447E0,3.952826977E0
3.176976305E0,-9.121908545E-1,8.896853447E0,3.960009575E0
3.178177113E0,-9.217676520E-1,8.896853447E0,3.948038578E0
3.181098998E0,-9.313444495E-1,8.896853447E0,3.912125587E0
3.182325498E0,-9.241618514E-1,8.913613319E0,3.878606796E0
3.185213909E0,-9.169792533E-1,8.920795441E0,3.849876404E0
3.186547728E0,-9.097966552E-1,8.918401718E0,3.811569214E0
3.188936844E0,-9.169792533E-1,8.930372238E0,3.770867586E0
3.190401344E0,-9.241618514E-1,8.942343712E0,3.751713991E0
3.193049344E0,-9.193734527E-1,8.971074104E0,3.751713991E0
3.194482690E0,-9.241618514E-1,8.985439301E0,3.756502390E0
3.196838651E0,-9.121908545E-1,8.987833023E0,3.744531393E0
3.198600498E0,-8.834604025E-1,8.975862503E0,3.744531393E0
3.201010998E0,-8.595184088E-1,8.968679428E0,3.749319792E0
3.202739344E0,-8.403648138E-1,8.966285706E0,3.768473387E0
3.205112805E0,-8.379706144E-1,8.968679428E0,3.775655985E0
3.206988113E0,-8.427590132E-1,8.980650902E0,3.775655985E0
3.209100651E0,-8.667010069E-1,8.997409821E0,3.790021181E0
3.210809882E0,-9.026140571E-1,9.023746490E0,3.809175014E0
3.213252998E0,-9.385270476E-1,9.062053680E0,3.842693806E0
3.215013267E0,-9.696516991E-1,9.081207275E0,3.873818398E0
3.217355536E0,-9.959878922E-1,9.076418877E0,3.885789394E0
3.219081805E0,-9.935936928E-1,9.045293808E0,3.900154591E0
3.221398690E0,-9.385270476E-1,8.999804497E0,3.888183594E0
3.223197305E0,-8.523358107E-1,8.961497307E0,3.825934410E0
3.225568228E0,-7.757213712E-1,8.951920509E0,3.780444384E0
3.227388998E0,-7.565677166E-1,8.968679428E0,3.744531393E0
3.229587998E0,-8.140285611E-1,9.018958092E0,3.722983599E0
3.231317882E0,-9.193734527E-1,9.085995674E0,3.727771997E0
3.234076575E0,-1.022324085E0,9.136273384E0,3.725377798E0
3.235374075E0,-1.096544385E0,9.157821655E0,3.715801001E0
3.238232498E0,-1.110909581E0,9.141061783E0,3.679888010E0
3.239495767E0,-1.058237195E0,9.105149269E0,3.617638826E0
3.242306190E0,-9.672574997E-1,9.081207275E0,3.564966440E0
3.243537575E0,-8.858546019E-1,9.071630478E0,3.519476414E0
3.246446947E0,-8.690952063E-1,9.095572472E0,3.517082214E0
3.247823421E0,-9.002198577E-1,9.150638580E0,3.555389643E0
3.250496332E0,-9.217676520E-1,9.176975250E0,3.603273630E0
3.252289344E0,-9.217676520E-1,9.165003777E0,3.667917013E0
3.254543305E0,-8.834604025E-1,9.109937668E0,3.718195200E0
3.255761882E0,-8.068459630E-1,9.035717010E0,3.725377798E0
3.258650036E0,-6.895300746E-1,9.023746490E0,3.677493811E0
3.259865151E0,-6.631938815E-1,9.059659004E0,3.610456228E0
3.262723882E0,-6.799532771E-1,9.100360870E0,3.543418407E0
3.263943536E0,-7.182605267E-1,9.121908188E0,3.493140221E0
3.266866486E0,-7.469909191E-1,9.121908188E0,3.485957623E0
3.268497113E0,-7.852981687E-1,9.114726067E0,3.512293816E0
3.270672344E0,-8.427590132E-1,9.093177795E0,3.541024208E0
3.272104421E0,-9.050082564E-1,9.076418877E0,3.567360640E0
3.274776036E0,-9.816226959E-1,9.081207275E0,3.603273630E0
3.276286767E0,-1.034295082E0,9.095572472E0,3.648763418E0
3.278581344E0,-1.019929886E0,9.102754593E0,3.708618402E0
3.280345844E0,-9.528923035E-1,9.083600998E0,3.742137194E0
3.282698767E0,-8.499416113E-1,9.033323288E0,3.761290789E0
3.284413536E0,-7.374141216E-1,8.961497307E0,3.770867586E0
3.286870882E0,-6.584054828E-1,8.904036522E0,3.787626982E0
3.288705151E0,-6.584054828E-1,8.889671326E0,3.830722809E0
3.290840998E0,-7.613561153E-1,8.908824921E0,3.837905407E0
3.292552613E0,-9.193734527E-1,8.973467827E0,3.818751812E0
3.294991190E0,-1.055842996E0,9.038111687E0,3.806780815E0
3.296689651E0,-1.115697980E0,9.064447403E0,3.787626982E0
3.299010036E0,-1.079784989E0,9.040505409E0,3.766079187E0
3.300873074E0,-9.840168953E-1,8.973467827E0,3.754108191E0
3.303094228E0,-8.762778044E-1,8.918401718E0,3.739742994E0
3.304834574E0,-8.044517636E-1,8.899248123E0,3.732560396E0
3.307246459E0,-7.733271718E-1,8.913613319E0,3.730166197E0
3.309131228E0,-8.068459630E-1,8.944737434E0,3.734954596E0
3.311317728E0,-8.714894056E-1,8.983044624E0,3.761290789E0
3.312948805E0,-9.289502501E-1,9.011775017E0,3.801992416E0
3.315632921E0,-9.768342972E-1,8.999804497E0,3.823540211E0
3.317122728E0,-9.696516991E-1,8.987833023E0,3.837905407E0
3.319951139E0,-9.528923035E-1,8.987833023E0,3.833117008E0
3.321226113E0,-9.337386489E-1,9.006986618E0,3.811569214E0
3.324040728E0,-9.097966552E-1,9.018958092E0,3.778050184E0
3.325250228E0,-8.643068075E-1,9.030928612E0,3.737348795E0
3.328155332E0,-8.092401624E-1,9.052476883E0,3.711012602E0
3.329572536E0,-7.517793179E-1,9.045293808E0,3.682282209E0
3.332212139E0,-7.062895298E-1,9.045293808E0,3.648763418E0
3.333549767E0,-6.895300746E-1,9.066842079E0,3.653551817E0
3.336278524E0,-7.134721279E-1,9.088389397E0,3.665522814E0
3.337553767E0,-7.757213712E-1,9.109937668E0,3.675099611E0
3.340353651E0,-8.499416113E-1,9.114726067E0,3.663128614E0
3.341547267E0,-9.026140571E-1,9.109937668E0,3.663128614E0
3.344444074E0,-9.193734527E-1,9.112331390E0,3.679888010E0
3.345667767E0,-8.978256583E-1,9.095572472E0,3.708618402E0
3.348582524E0,-8.738836050E-1,9.074024200E0,3.751713991E0
3.350102498E0,-8.690952063E-1,9.052476883E0,3.797203779E0
3.352336651E0,-8.714894056E-1,9.023746490E0,3.833117008E0
3.353796613E0,-8.571242094E-1,8.992621422E0,3.864241600E0
3.356443998E0,-8.379706144E-1,8.954314232E0,3.878606796E0
3.357855574E0,-8.259995580E-1,8.937555313E0,3.888183594E0
3.360245498E0,-8.379706144E-1,8.930372238E0,3.895366192E0
3.361950690E0,-8.810662031E-1,8.937555313E0,3.895366192E0
3.364338113E0,-9.385270476E-1,8.951920509E0,3.904942989E0
3.366108228E0,-9.816226959E-1,8.963891029E0,3.900154591E0
3.368537190E0,-9.959878922E-1,8.968679428E0,3.869029999E0
3.370392613E0,-9.624691010E-1,8.961497307E0,3.828328609E0
3.372486921E0,-9.002198577E-1,8.949525833E0,3.775655985E0
3.374200574E0,-8.451532125E-1,8.944737434E0,3.725377798E0
3.376633267E0,-8.523358107E-1,8.966285706E0,3.691859007E0
3.378291536E0,-9.074024558E-1,8.999804497E0,3.687070608E0
3.380659997E0,-9.744400978E-1,9.026140213E0,3.706224203E0
3.382425728E0,-1.005564690E0,9.026140213E0,3.730166197E0
3.384789497E0,-9.888052940E-1,9.004592896E0,3.756502390E0
3.386554728E0,-9.504981041E-1,8.985439301E0,3.766079187E0
3.388916074E0,-9.145850539E-1,8.983044624E0,3.754108191E0
3.390755151E0,-8.810662031E-1,8.997409821E0,3.727771997E0
3.393010882E0,-8.667010069E-1,9.011775017E0,3.677493811E0
3.394676344E0,-8.762778044E-1,9.030928612E0,3.651157618E0
3.397286844E0,-9.002198577E-1,9.040505409E0,3.653551817E0
3.398879305E0,-9.457096457E-1,9.040505409E0,3.675099611E0
3.401625178E0,-1.005564690E0,9.035717010E0,3.706224203E0
3.402814921E0,-1.055842996E0,9.030928612E0,3.727771997E0
3.405716574E0,-1.094150186E0,9.035717010E0,3.744531393E0
3.406899267E0,-1.120486379E0,9.050082207E0,3.761290789E0
3.409820997E0,-1.096544385E0,9.057265282E0,3.768473387E0
3.411172305E0,-1.036689281E0,9.066842079E0,3.756502390E0
3.413853728E0,-9.600749016E-1,9.062053680E0,3.742137194E0
3.415028882E0,-8.810662031E-1,9.026140213E0,3.711012602E0
3.417942370E0,-8.236053586E-1,8.997409821E0,3.694253206E0
3.419157382E0,-8.212111592E-1,8.995016098E0,3.682282209E0
3.422044139E0,-8.762778044E-1,9.023746490E0,3.675099611E0
3.423234536E0,-9.720458984E-1,9.064447403E0,3.677493811E0
3.426116844E0,-1.077390790E0,9.095572472E0,3.677493811E0
3.427316959E0,-1.149216771E0,9.117119789E0,3.677493811E0
3.430247062E0,-1.156399369E0,9.121908188E0,3.687070608E0
3.431717997E0,-1.055842996E0,9.088389397E0,3.703830004E0
3.434087844E0,-9.481038451E-1,9.052476883E0,3.694253206E0
3.522261536E0,-9.744400978E-1,9.064447403E0,3.409343243E0
3.525131506E0,-8.690952063E-1,9.208099365E0,2.983175278E0
3.526395459E0,-7.900865674E-1,9.282320023E0,2.693476915E0
3.529235660E0,-7.709329724E-1,9.351752281E0,2.454056740E0
3.530465921E0,-8.331822157E-1,9.457097054E0,2.205059767E0
3.532895344E0,-9.433154464E-1,9.548076630E0,1.948880196E0
3.534584113E0,-1.015141487E0,9.581595421E0,1.817199111E0
3.536986959E0,-9.864110947E-1,9.564835548E0,1.932120800E0
3.538779728E0,-8.978256583E-1,9.502586365E0,2.284068346E0
3.541135382E0,-8.499416113E-1,9.390059471E0,2.724601507E0
3.542806228E0,-8.690952063E-1,9.222464561E0,3.107673883E0
3.545412036E0,-8.978256583E-1,9.059659004E0,3.459621429E0
3.546882613E0,-8.690952063E-1,8.949525833E0,3.866635799E0
3.549783775E0,-7.781155705E-1,8.836998940E0,4.331110954E0
3.551044805E0,-6.895300746E-1,8.683769226E0,4.771644115E0
3.553547805E0,-6.631938815E-1,8.487444878E0,5.183446884E0
3.555145267E0,-7.278373241E-1,8.458714485E0,5.233725071E0
3.557536421E0,-8.092401624E-1,8.492233276E0,5.145139217E0
3.559247190E0,-8.619126081E-1,8.554482460E0,4.989516258E0
3.561680959E0,-8.714894056E-1,8.643068314E0,4.805162907E0
3.563378998E0,-8.810662031E-1,8.746018410E0,4.558559895E0
3.566226083E0,-9.265560508E-1,8.846575737E0,4.204218388E0
3.567536728E0,-1.000776291E0,8.942343712E0,3.763684988E0
3.570359121E0,-1.067813993E0,9.040505409E0,3.327940464E0
3.571983882E0,-1.067813993E0,9.141061783E0,2.983175278E0
3.574422544E0,-1.017535686E0,9.232041359E0,2.738966703E0
3.575604882E0,-9.768342972E-1,9.296685219E0,2.583343744E0
3.578491467E0,-9.744400978E-1,9.351752281E0,2.466027737E0
3.579706267E0,-1.000776291E0,9.392453194E0,2.382230759E0
3.582594814E0,-1.007958889E0,9.402029991E0,2.384624958E0
3.583866151E0,-9.744400978E-1,9.358934402E0,2.525882721E0
3.586697621E0,-9.121908545E-1,9.284713745E0,2.791639090E0
3.587894267E0,-8.619126081E-1,9.208099365E0,3.107673883E0
3.590799929E0,-8.714894056E-1,9.145850182E0,3.397372246E0
3.592394575E0,-9.816226959E-1,9.066842079E0,3.797203779E0
3.594860775E0,-1.015141487E0,9.035717010E0,3.936067581E0
3.596019075E0,-1.034295082E0,8.968679428E0,4.242525578E0
3.598928314E0,-9.792284966E-1,8.889671326E0,4.532223701E0
3.600139498E0,-8.810662031E-1,8.805873871E0,4.750096321E0
3.602796498E0,-8.020575643E-1,8.738836288E0,4.862623692E0
3.604306228E0,-7.661445141E-1,8.702922821E0,4.862623692E0
3.607134583E0,-7.709329724E-1,8.712499619E0,4.704606533E0
3.608347805E0,-7.852981687E-1,8.753201485E0,4.553771496E0
3.611237467E0,-8.164227605E-1,8.822632790E0,4.364629745E0
3.612465690E0,-8.810662031E-1,8.916007042E0,4.101267338E0
3.614880575E0,-9.696516991E-1,9.016563416E0,3.766079187E0
3.616590959E0,-1.058237195E0,9.112331390E0,3.426102638E0
3.619022613E0,-1.103726983E0,9.186552048E0,3.157952070E0
3.620683805E0,-1.091755986E0,9.236829758E0,2.987963676E0
3.623116036E0,-1.039083481E0,9.277531624E0,2.877830505E0
3.624931382E0,-9.720458984E-1,9.301473618E0,2.796427488E0
3.627537113E0,-9.169792533E-1,9.318233490E0,2.746149302E0
3.628881882E0,-8.786720037E-1,9.318233490E0,2.746149302E0
3.631782313E0,-8.355764151E-1,9.284713745E0,2.829946518E0
3.633032613E0,-7.829039693E-1,9.227252960E0,3.014299870E0
3.635454536E0,-7.254431248E-1,9.160215378E0,3.268085241E0
3.637124959E0,-6.775590777E-1,9.100360870E0,3.507505417E0
3.639548882E0,-6.631938815E-1,9.057265282E0,3.689464808E0
3.641242998E0,-6.967126727E-1,9.021351814E0,3.845088005E0
3.643700190E0,-7.422025204E-1,8.978256226E0,4.017470360E0
3.645367921E0,-7.781155705E-1,8.930372238E0,4.206612587E0
3.648223506E0,-8.068459630E-1,8.899248123E0,4.371812344E0
3.649447459E0,-8.331822157E-1,8.872911453E0,4.450820923E0
3.652328275E0,-8.355764151E-1,8.865729332E0,4.426878929E0
3.653924998E0,-8.212111592E-1,8.863334656E0,4.369418144E0
3.656392775E0,-7.948749661E-1,8.846575737E0,4.311957359E0
3.657562267E0,-7.541735172E-1,8.841787338E0,4.240131378E0
3.660461621E0,-7.206547260E-1,8.870517731E0,4.129997730E0
3.661707421E0,-7.206547260E-1,8.918401718E0,3.967192173E0
3.664565198E0,-7.613561153E-1,8.983044624E0,3.766079187E0
3.665820305E0,-8.259995580E-1,9.042900085E0,3.579331636E0
3.668668236E0,-8.954314590E-1,9.093177795E0,3.447650433E0
3.670041382E0,-9.481038451E-1,9.126696587E0,3.373430252E0
3.672771775E0,-9.911994934E-1,9.155426979E0,3.320757866E0
3.674374536E0,-1.007958889E0,9.188945770E0,3.260902643E0
3.676833390E0,-9.888052940E-1,9.203310966E0,3.220201254E0
3.678009728E0,-9.313444495E-1,9.188945770E0,3.232172251E0
3.680901506E0,-8.427590132E-1,9.148244858E0,3.315969467E0
3.682119113E0,-7.541735172E-1,9.090784073E0,3.445256233E0
3.684779344E0,-6.919242740E-1,9.050082207E0,3.560178041E0
3.686275574E0,-6.799532771E-1,9.030928612E0,3.655946016E0
3.689109005E0,-7.134721279E-1,9.023746490E0,3.739742994E0
3.690345382E0,-7.757213712E-1,9.026140213E0,3.835511208E0
3.693243236E0,-8.331822157E-1,9.016563416E0,3.940855980E0
3.694485651E0,-8.690952063E-1,8.990227699E0,4.043806553E0
3.696904767E0,-8.858546019E-1,8.961497307E0,4.103661537E0
3.698583228E0,-8.762778044E-1,8.947132111E0,4.101267338E0
3.700996228E0,-8.259995580E-1,8.944737434E0,4.046200752E0
3.702729459E0,-7.852981687E-1,8.942343712E0,4.005499363E0
3.705107151E0,-7.613561153E-1,8.927978516E0,3.976768970E0
3.706830844E0,-7.613561153E-1,8.920795441E0,3.928884983E0
3.709409651E0,-7.876923680E-1,8.932766914E0,3.871424198E0
3.710904190E0,-8.379706144E-1,8.966285706E0,3.794809580E0
3.713784813E0,-8.906430602E-1,8.995016098E0,3.720589399E0
3.715021882E0,-9.289502501E-1,9.011775017E0,3.675099611E0
3.717427421E0,-9.457096457E-1,9.011775017E0,3.648763418E0
3.719199382E0,-9.504981041E-1,9.004592896E0,3.634398222E0
3.721549613E0,-9.457096457E-1,9.006986618E0,3.620033026E0
3.723248267E0,-9.457096457E-1,9.023746490E0,3.581725836E0
3.725729228E0,-9.433154464E-1,9.038111687E0,3.560178041E0
3.727391421E0,-9.217676520E-1,9.042900085E0,3.581725836E0
3.730224659E0,-8.906430602E-1,9.035717010E0,3.632004023E0
3.731464574E0,-8.738836050E-1,9.009381294E0,3.694253206E0
3.734328005E0,-8.547300100E-1,8.983044624E0,3.739742994E0
3.735959421E0,-7.996633649E-1,8.975862503E0,3.756502390E0
3.738391505E0,-7.829039693E-1,8.975862503E0,3.754108191E0
3.739636151E0,-7.589619160E-1,8.978256226E0,3.770867586E0
3.742460082E0,-7.326257229E-1,8.980650902E0,3.785232782E0
3.743689305E0,-7.278373241E-1,8.987833023E0,3.773261786E0
3.746562736E0,-7.493851185E-1,8.987833023E0,3.746925592E0
3.747809382E0,-7.924807668E-1,8.995016098E0,3.703830004E0
3.750665044E0,-8.475474119E-1,9.030928612E0,3.641580820E0
3.751910190E0,-8.643068075E-1,9.042900085E0,3.624821424E0
3.754770044E0,-8.714894056E-1,9.030928612E0,3.632004023E0
3.756384959E0,-8.762778044E-1,9.016563416E0,3.646369219E0
3.758831505E0,-8.738836050E-1,9.009381294E0,3.646369219E0
3.760014651E0,-8.667010069E-1,9.004592896E0,3.651157618E0
3.762899159E0,-8.738836050E-1,9.002198219E0,3.672705412E0
3.764108574E0,-8.834604025E-1,8.985439301E0,3.713406801E0
3.766788421E0,-9.002198577E-1,8.971074104E0,3.766079187E0
3.768263882E0,-9.169792533E-1,8.961497307E0,3.821146011E0
3.771104890E0,-9.361328483E-1,8.959102631E0,3.866635799E0
3.772333844E0,-9.504981041E-1,8.956708908E0,3.897760391E0
3.775208159E0,-9.409212470E-1,8.959102631E0,3.921702385E0
3.776455536E0,-9.097966552E-1,8.961497307E0,3.945644379E0
3.778866074E0,-8.738836050E-1,8.963891029E0,3.960009575E0
3.780570190E0,-8.403648138E-1,8.961497307E0,3.955221176E0
3.782980190E0,-8.140285611E-1,8.968679428E0,3.921702385E0
3.784695959E0,-7.900865674E-1,8.980650902E0,3.869029999E0
3.787127074E0,-7.661445141E-1,8.995016098E0,3.816357613E0
3.788909959E0,-7.374141216E-1,9.011775017E0,3.768473387E0
3.791391728E0,-7.134721279E-1,9.023746490E0,3.718195200E0
3.792885497E0,-7.038952708E-1,9.038111687E0,3.667917013E0
3.795752851E0,-7.110779285E-1,9.052476883E0,3.610456228E0
3.796995228E0,-7.230489254E-1,9.069235802E0,3.572149038E0
3.799409767E0,-7.445967197E-1,9.088389397E0,3.548206806E0
3.801216421E0,-7.589619160E-1,9.100360870E0,3.545812607E0
3.803628497E0,-7.661445141E-1,9.107542992E0,3.550601006E0
3.805215497E0,-7.805097699E-1,9.100360870E0,3.572149038E0
3.807676190E0,-7.924807668E-1,9.078812599E0,3.617638826E0
3.809358267E0,-7.829039693E-1,9.062053680E0,3.677493811E0
3.812192120E0,-7.613561153E-1,9.040505409E0,3.751713991E0
3.813436536E0,-7.278373241E-1,9.016563416E0,3.821146011E0
3.816325428E0,-7.062895298E-1,8.990227699E0,3.890577793E0
3.817933497E0,-7.015010715E-1,8.971074104E0,3.964797974E0
3.820389120E0,-7.182605267E-1,8.963891029E0,4.015076160E0
3.821684574E0,-7.350199223E-1,8.954314232E0,4.034229755E0
3.824457813E0,-7.493851185E-1,8.954314232E0,4.046200752E0
3.825759113E0,-7.733271718E-1,8.956708908E0,4.043806553E0
3.828561236E0,-7.900865674E-1,8.963891029E0,4.019864559E0
3.829794382E0,-8.020575643E-1,8.978256226E0,3.976768970E0
3.832665043E0,-8.140285611E-1,8.990227699E0,3.931279182E0
3.833954997E0,-8.188169599E-1,9.002198219E0,3.878606796E0
3.836769390E0,-8.116343617E-1,9.014169693E0,3.809175014E0
3.838490997E0,-7.733271718E-1,9.038111687E0,3.696647406E0
3.840831274E0,-7.589619160E-1,9.042900085E0,3.663128614E0
3.842028421E0,-7.350199223E-1,9.059659004E0,3.598485231E0
3.844899813E0,-7.230489254E-1,9.081207275E0,3.538630009E0
3.846120882E0,-7.182605267E-1,9.090784073E0,3.483563423E0
3.848766344E0,-7.206547260E-1,9.093177795E0,3.452438831E0
3.850250036E0,-7.134721279E-1,9.100360870E0,3.445256233E0
3.853106466E0,-7.230489254E-1,9.097966194E0,3.459621429E0
3.854324228E0,-7.469909191E-1,9.093177795E0,3.490746021E0
3.857210389E0,-7.781155705E-1,9.081207275E0,3.533841610E0
3.858455382E0,-7.996633649E-1,9.057265282E0,3.603273630E0
3.860890267E0,-8.164227605E-1,9.035717010E0,3.679888010E0
3.862552536E0,-8.331822157E-1,9.011775017E0,3.751713991E0
3.864933959E0,-8.475474119E-1,8.990227699E0,3.821146011E0
3.866680497E0,-8.523358107E-1,8.971074104E0,3.890577793E0
3.869133728E0,-8.475474119E-1,8.951920509E0,3.948038578E0
3.870853690E0,-8.355764151E-1,8.935160637E0,4.005499363E0
3.873514536E0,-8.283938169E-1,8.920795441E0,4.048594952E0
3.874957882E0,-8.283938169E-1,8.918401718E0,4.067748547E0
3.877758082E0,-8.403648138E-1,8.925583839E0,4.072536945E0
3.879010959E0,-8.643068075E-1,8.942343712E0,4.046200752E0
3.881395613E0,-8.906430602E-1,8.968679428E0,4.000710964E0
3.883157074E0,-9.097966552E-1,8.987833023E0,3.948038578E0
3.885789767E0,-9.193734527E-1,9.002198219E0,3.892971992E0
3.887330844E0,-9.097966552E-1,9.018958092E0,3.837905407E0
3.889738420E0,-8.858546019E-1,9.038111687E0,3.773261786E0
3.891366651E0,-8.619126081E-1,9.057265282E0,3.699041605E0
3.894200928E0,-8.236053586E-1,9.071630478E0,3.603273630E0
3.895411151E0,-8.164227605E-1,9.074024200E0,3.562572241E0
3.898304274E0,-8.188169599E-1,9.081207275E0,3.541024208E0
3.899917074E0,-8.331822157E-1,9.085995674E0,3.526659012E0
3.902368428E0,-8.499416113E-1,9.085995674E0,3.521870613E0
3.903716305E0,-8.571242094E-1,9.081207275E0,3.526659012E0
3.906437466E0,-8.595184088E-1,9.071630478E0,3.538630009E0
3.907648844E0,-8.667010069E-1,9.050082207E0,3.572149038E0
3.910541889E0,-8.738836050E-1,9.023746490E0,3.620033026E0
3.911805651E0,-8.690952063E-1,9.002198219E0,3.667917013E0
3.914645966E0,-8.595184088E-1,8.990227699E0,3.706224203E0
3.915867497E0,-8.355764151E-1,8.983044624E0,3.734954596E0
3.918750043E0,-8.259995580E-1,8.968679428E0,3.758896589E0
3.920401613E0,-8.403648138E-1,8.961497307E0,3.787626982E0
3.922812274E0,-8.499416113E-1,8.961497307E0,3.818751812E0
3.924112382E0,-8.571242094E-1,8.959102631E0,3.828328609E0
3.926881466E0,-8.595184088E-1,8.951920509E0,3.823540211E0
3.928086305E0,-8.619126081E-1,8.959102631E0,3.811569214E0
3.930752651E0,-8.738836050E-1,8.975862503E0,3.794809580E0
3.932292074E0,-8.762778044E-1,8.978256226E0,3.778050184E0
3.935090197E0,-8.810662031E-1,8.990227699E0,3.768473387E0
3.936415497E0,-8.906430602E-1,8.999804497E0,3.756502390E0
3.939220812E0,-9.050082564E-1,9.011775017E0,3.732560396E0
3.940510574E0,-9.050082564E-1,9.026140213E0,3.708618402E0
3.942892651E0,-9.050082564E-1,9.026140213E0,3.694253206E0
3.944664074E0,-9.313444495E-1,9.011775017E0,3.689464808E0
3.946966959E0,-9.385270476E-1,9.006986618E0,3.699041605E0
3.948682728E0,-9.457096457E-1,9.011775017E0,3.713406801E0
3.951134344E0,-9.576807022E-1,9.014169693E0,3.734954596E0
3.952984690E0,-9.672574997E-1,9.018958092E0,3.758896589E0
3.955493536E0,-9.792284966E-1,9.018958092E0,3.785232782E0
3.956881651E0,-9.864110947E-1,9.004592896E0,3.801992416E0
3.959771774E0,-9.768342972E-1,8.992621422E0,3.806780815E0
3.961056074E0,-9.600749016E-1,8.987833023E0,3.801992416E0
3.963415074E0,-9.433154464E-1,8.990227699E0,3.787626982E0
3.965122959E0,-9.217676520E-1,8.990227699E0,3.770867586E0
3.967609844E0,-9.002198577E-1,8.995016098E0,3.766079187E0
3.969245767E0,-8.858546019E-1,8.995016098E0,3.754108191E0
3.971704844E0,-8.882488012E-1,8.995016098E0,3.727771997E0
3.973378959E0,-8.954314590E-1,9.002198219E0,3.701435804E0
3.976215466E0,-9.026140571E-1,9.004592896E0,3.665522814E0
3.977438651E0,-9.241618514E-1,9.016563416E0,3.629609823E0
3.980321043E0,-9.385270476E-1,9.026140213E0,3.588908434E0
3.981913997E0,-9.457096457E-1,9.030928612E0,3.567360640E0
3.984387197E0,-9.457096457E-1,9.035717010E0,3.564966440E0
3.985604344E0,-9.433154464E-1,9.045293808E0,3.555389643E0
3.988457812E0,-9.361328483E-1,9.045293808E0,3.557783842E0
3.989763267E0,-9.289502501E-1,9.035717010E0,3.569754839E0
3.992562312E0,-9.289502501E-1,9.023746490E0,3.598485231E0
3.993822920E0,-9.528923035E-1,9.021351814E0,3.636792421E0
3.996666581E0,-9.816226959E-1,9.016563416E0,3.682282209E0
3.997923767E0,-9.959878922E-1,9.014169693E0,3.727771997E0
4.000773274E0,-1.015141487E0,9.009381294E0,3.775655985E0
4.002430920E0,-1.027112484E0,9.004592896E0,3.825934410E0
4.004836120E0,-1.027112484E0,8.990227699E0,3.864241600E0
4.006027113E0,-1.022324085E0,8.971074104E0,3.890577793E0
4.008905004E0,-1.010353088E0,8.961497307E0,3.919308186E0
4.010134190E0,-9.959878922E-1,8.959102631E0,3.933673382E0
4.012763574E0,-9.864110947E-1,8.959102631E0,3.936067581E0
4.014364959E0,-9.792284966E-1,8.956708908E0,3.924096584E0
4.017112620E0,-9.744400978E-1,8.966285706E0,3.904942989E0
4.018390305E0,-9.672574997E-1,8.973467827E0,3.866635799E0
4.021216312E0,-9.576807022E-1,8.980650902E0,3.823540211E0
4.022775036E0,-9.528923035E-1,8.987833023E0,3.787626982E0
4.024991613E0,-9.457096457E-1,9.002198219E0,3.739742994E0
4.026577228E0,-9.385270476E-1,9.023746490E0,3.687070608E0
4.028957767E0,-9.313444495E-1,9.040505409E0,3.636792421E0
4.030690074E0,-9.241618514E-1,9.050082207E0,3.596091032E0
4.033178343E0,-9.145850539E-1,9.057265282E0,3.557783842E0
4.034876228E0,-9.145850539E-1,9.064447403E0,3.526659012E0
4.037452959E0,-9.241618514E-1,9.069235802E0,3.497928619E0
4.038922843E0,-9.241618514E-1,9.074024200E0,3.493140221E0
4.041762312E0,-9.217676520E-1,9.069235802E0,3.512293816E0
4.043002036E0,-9.289502501E-1,9.052476883E0,3.536235809E0
4.045376382E0,-9.361328483E-1,9.035717010E0,3.564966440E0
4.047102574E0,-9.289502501E-1,9.021351814E0,3.605667830E0
4.049586036E0,-9.193734527E-1,9.009381294E0,3.643975019E0
4.051300343E0,-9.289502501E-1,8.995016098E0,3.679888010E0
4.053770728E0,-9.481038451E-1,8.983044624E0,3.715801001E0
4.055449420E0,-9.648633003E-1,8.978256226E0,3.749319792E0
4.058201196E0,-9.792284966E-1,8.975862503E0,3.770867586E0
4.059461305E0,-9.864110947E-1,8.959102631E0,3.794809580E0
4.062333543E0,-9.864110947E-1,8.947132111E0,3.821146011E0
4.063903228E0,-9.888052940E-1,8.947132111E0,3.821146011E0
4.066450927E0,-9.983820915E-1,8.949525833E0,3.809175014E0
4.067679805E0,-1.000776291E0,8.954314232E0,3.801992416E0
4.070396927E0,-1.015141487E0,8.959102631E0,3.785232782E0
4.071702190E0,-1.027112484E0,8.973467827E0,3.768473387E0
4.074465927E0,-1.036689281E0,8.987833023E0,3.754108191E0
4.075727574E0,-1.055842996E0,8.992621422E0,3.720589399E0
4.078569235E0,-1.067813993E0,8.995016098E0,3.694253206E0
4.079860767E0,-1.060631394E0,9.002198219E0,3.667917013E0
4.082672927E0,-1.043871999E0,9.009381294E0,3.655946016E0
4.084462843E0,-1.029506683E0,9.016563416E0,3.646369219E0
4.086758773E0,-1.031900883E0,9.018958092E0,3.636792421E0
4.087976651E0,-1.039083481E0,9.026140213E0,3.617638826E0
4.090826773E0,-1.039083481E0,9.038111687E0,3.605667830E0
4.092030343E0,-1.024718285E0,9.047688484E0,3.610456228E0
4.094683843E0,-1.007958889E0,9.054870605E0,3.624821424E0
4.096191420E0,-1.000776291E0,9.052476883E0,3.643975019E0
4.099032889E0,-9.935936928E-1,9.040505409E0,3.648763418E0
4.100437036E0,-9.744400978E-1,9.033323288E0,3.670311213E0
4.103136235E0,-9.600749016E-1,9.023746490E0,3.708618402E0
4.104451190E0,-9.504981041E-1,9.011775017E0,3.732560396E0
4.106897728E0,-9.433154464E-1,9.006986618E0,3.742137194E0
4.108484805E0,-9.552865028E-1,9.002198219E0,3.749319792E0
4.110963728E0,-9.696516991E-1,8.995016098E0,3.766079187E0
4.112641959E0,-9.840168953E-1,8.987833023E0,3.773261786E0
4.115026843E0,-9.935936928E-1,8.987833023E0,3.778050184E0
4.116760920E0,-1.005564690E0,8.985439301E0,3.778050184E0
4.119480959E0,-1.007958889E0,8.978256226E0,3.768473387E0
4.120886228E0,-1.003170490E0,8.975862503E0,3.744531393E0
4.123684004E0,-1.000776291E0,8.978256226E0,3.718195200E0
4.124927920E0,-9.983820915E-1,8.978256226E0,3.706224203E0
4.127254228E0,-9.959878922E-1,8.975862503E0,3.689464808E0
4.128964959E0,-1.003170490E0,8.978256226E0,3.658340216E0
4.131382651E0,-1.012747288E0,8.987833023E0,3.634398222E0
4.133054536E0,-1.027112484E0,8.990227699E0,3.615244627E0
4.135526074E0,-1.031900883E0,9.009381294E0,3.596091032E0
4.137187882E0,-1.034295082E0,9.014169693E0,3.579331636E0
4.140029465E0,-1.029506683E0,9.006986618E0,3.562572241E0
4.141225074E0,-1.022324085E0,9.009381294E0,3.557783842E0
4.144132465E0,-1.015141487E0,9.011775017E0,3.567360640E0
4.145944651E0,-1.017535686E0,9.006986618E0,3.579331636E0
4.148218234E0,-1.015141487E0,9.006986618E0,3.593696833E0
4.149414151E0,-1.015141487E0,9.009381294E0,3.620033026E0
4.152286581E0,-1.019929886E0,9.004592896E0,3.646369219E0
4.153690574E0,-1.017535686E0,8.997409821E0,3.670311213E0
4.156390042E0,-1.012747288E0,8.995016098E0,3.703830004E0
4.157636036E0,-1.007958889E0,8.990227699E0,3.715801001E0
4.160492850E0,-1.003170490E0,8.980650902E0,3.722983599E0
4.161685113E0,-1.005564690E0,8.971074104E0,3.732560396E0
4.164595811E0,-1.005564690E0,8.975862503E0,3.749319792E0
4.166229343E0,-1.010353088E0,8.992621422E0,3.754108191E0
4.168658119E0,-1.019929886E0,8.995016098E0,3.749319792E0
4.169899382E0,-1.027112484E0,8.995016098E0,3.732560396E0
4.172726119E0,-1.034295082E0,9.006986618E0,3.715801001E0
4.173923305E0,-1.027112484E0,9.021351814E0,3.708618402E0
4.176585997E0,-1.010353088E0,9.028534889E0,3.703830004E0
4.178108151E0,-9.888052940E-1,9.033323288E0,3.682282209E0
4.180930888E0,-9.792284966E-1,9.030928612E0,3.667917013E0
4.182191728E0,-9.576807022E-1,9.021351814E0,3.658340216E0
4.185059888E0,-9.433154464E-1,9.026140213E0,3.648763418E0
4.186367613E0,-9.313444495E-1,9.026140213E0,3.648763418E0
4.188778074E0,-9.289502501E-1,9.023746490E0,3.653551817E0
4.190468228E0,-9.313444495E-1,9.018958092E0,3.653551817E0
4.192769882E0,-9.313444495E-1,9.021351814E0,3.663128614E0
4.194481228E0,-9.313444495E-1,9.018958092E0,3.675099611E0
4.196889882E0,-9.337386489E-1,9.018958092E0,3.687070608E0
4.198638151E0,-9.313444495E-1,9.018958092E0,3.708618402E0
4.201222882E0,-9.289502501E-1,9.016563416E0,3.718195200E0
4.202768266E0,-9.289502501E-1,9.006986618E0,3.727771997E0
4.205604080E0,-9.361328483E-1,8.999804497E0,3.730166197E0
4.206829151E0,-9.433154464E-1,8.992621422E0,3.739742994E0
4.209317651E0,-9.457096457E-1,8.992621422E0,3.742137194E0
4.210961420E0,-9.457096457E-1,8.995016098E0,3.739742994E0
4.213359959E0,-9.361328483E-1,8.995016098E0,3.744531393E0
4.215038189E0,-9.337386489E-1,8.995016098E0,3.746925592E0
4.217713343E0,-9.313444495E-1,8.990227699E0,3.737348795E0
4.219308420E0,-9.241618514E-1,8.997409821E0,3.730166197E0
4.222042080E0,-9.169792533E-1,9.006986618E0,3.722983599E0
4.223252382E0,-9.169792533E-1,9.009381294E0,3.713406801E0
4.226144426E0,-9.169792533E-1,9.011775017E0,3.696647406E0
4.227701997E0,-9.169792533E-1,9.016563416E0,3.682282209E0
4.230206619E0,-9.145850539E-1,9.018958092E0,3.679888010E0
4.231535920E0,-9.050082564E-1,9.028534889E0,3.670311213E0
4.234274619E0,-8.930372596E-1,9.030928612E0,3.653551817E0
4.235637074E0,-8.810662031E-1,9.026140213E0,3.646369219E0
4.238378388E0,-8.762778044E-1,9.023746490E0,3.651157618E0
4.239631189E0,-8.714894056E-1,9.028534889E0,3.663128614E0
4.242481042E0,-8.738836050E-1,9.033323288E0,3.663128614E0
4.243669036E0,-8.714894056E-1,9.030928612E0,3.651157618E0
4.246585926E0,-8.858546019E-1,9.026140213E0,3.663128614E0
4.248174074E0,-9.002198577E-1,9.026140213E0,3.670311213E0
4.250646503E0,-8.954314590E-1,9.028534889E0,3.667917013E0
4.251829997E0,-8.882488012E-1,9.026140213E0,3.672705412E0
4.254714619E0,-8.810662031E-1,9.030928612E0,3.682282209E0
4.255915613E0,-8.714894056E-1,9.033323288E0,3.687070608E0
4.258586151E0,-8.643068075E-1,9.028534889E0,3.694253206E0
4.260071766E0,-8.595184088E-1,9.023746490E0,3.687070608E0
4.262864574E0,-8.547300100E-1,9.028534889E0,3.682282209E0
4.264145074E0,-8.523358107E-1,9.033323288E0,3.682282209E0
4.267023349E0,-8.643068075E-1,9.030928612E0,3.682282209E0
4.268332151E0,-8.762778044E-1,9.033323288E0,3.679888010E0
4.270920613E0,-8.738836050E-1,9.035717010E0,3.677493811E0
4.272365151E0,-8.667010069E-1,9.035717010E0,3.675099611E0
4.274756382E0,-8.619126081E-1,9.033323288E0,3.682282209E0
4.276460689E0,-8.523358107E-1,9.035717010E0,3.682282209E0
4.278892536E0,-8.427590132E-1,9.033323288E0,3.687070608E0
4.280620536E0,-8.403648138E-1,9.026140213E0,3.687070608E0
4.283207728E0,-8.427590132E-1,9.030928612E0,3.689464808E0
4.284703997E0,-8.451532125E-1,9.045293808E0,3.696647406E0
4.287567811E0,-8.499416113E-1,9.047688484E0,3.706224203E0
4.288784728E0,-8.475474119E-1,9.045293808E0,3.708618402E0
4.291202343E0,-8.331822157E-1,9.035717010E0,3.708618402E0
4.292903497E0,-8.212111592E-1,9.035717010E0,3.711012602E0
4.295323343E0,-8.044517636E-1,9.033323288E0,3.718195200E0
4.297018651E0,-7.972691655E-1,9.033323288E0,3.711012602E0
4.299506497E0,-7.924807668E-1,9.038111687E0,3.708618402E0
4.301168728E0,-7.900865674E-1,9.038111687E0,3.715801001E0
4.304004926E0,-7.924807668E-1,9.038111687E0,3.718195200E0
4.305238728E0,-7.996633649E-1,9.040505409E0,3.708618402E0
4.308134965E0,-8.092401624E-1,9.045293808E0,3.703830004E0
4.309700382E0,-8.212111592E-1,9.050082207E0,3.696647406E0
4.312197580E0,-8.259995580E-1,9.054870605E0,3.689464808E0
4.313362997E0,-8.259995580E-1,9.059659004E0,3.684676409E0
4.316265080E0,-8.236053586E-1,9.050082207E0,3.672705412E0
4.317549843E0,-8.092401624E-1,9.038111687E0,3.660734415E0
4.320367811E0,-7.852981687E-1,9.035717010E0,3.653551817E0
