"Time (s)","Gyroscope x (rad/s)","Gyroscope y (rad/s)","Gyroscope z (rad/s)"
8.967154000E-3,-3.621899337E-2,2.556634694E-2,4.261057824E-3
1.128619200E-2,-3.621899337E-2,2.556634694E-2,4.261057824E-3
1.301753800E-2,-3.621899337E-2,2.556634694E-2,4.261057824E-3
1.544473100E-2,-3.621899337E-2,2.556634694E-2,4.261057824E-3
1.714257700E-2,-3.621899337E-2,2.556634694E-2,4.261057824E-3
1.951661500E-2,-3.621899337E-2,2.556634694E-2,4.261057824E-3
2.134269200E-2,-3.621899337E-2,2.556634694E-2,4.261057824E-3
2.378007700E-2,-3.621899337E-2,2.556634694E-2,4.261057824E-3
2.529546100E-2,-3.621899337E-2,2.556634694E-2,4.261057824E-3
2.773934600E-2,-3.621899337E-2,2.556634694E-2,4.261057824E-3
2.939638500E-2,-3.621899337E-2,2.556634694E-2,4.261057824E-3
3.183657700E-2,-3.621899337E-2,2.556634694E-2,4.261057824E-3
3.353550000E-2,-3.621899337E-2,2.556634694E-2,4.261057824E-3
3.592780800E-2,-3.621899337E-2,2.556634694E-2,4.261057824E-3
3.758100000E-2,-3.621899337E-2,2.556634694E-2,4.261057824E-3
4.007496100E-2,-3.621899337E-2,2.556634694E-2,4.261057824E-3
4.187507700E-2,-2.290318534E-2,-2.130528912E-3,2.663161140E-3
4.399919200E-2,-7.456851192E-3,0.000000000E0,0.000000000E0
4.567861500E-2,1.438106969E-2,1.065264456E-3,-5.326322280E-4
4.836784600E-2,2.183792181E-2,4.261057824E-3,4.261057824E-3
4.972430800E-2,2.290318534E-2,1.757686399E-2,8.522115648E-3
5.265992100E-2,2.130528912E-2,2.130528912E-2,9.587380104E-3
5.383134600E-2,1.970739290E-2,1.757686399E-2,7.989482954E-3
5.676165200E-2,2.183792181E-2,3.195793368E-3,2.130528912E-3
5.791684600E-2,2.024002373E-2,-1.331580617E-2,-2.130528912E-3
6.086284400E-2,1.597896591E-2,-1.118527725E-2,-1.065264456E-3
6.218423100E-2,1.597896684E-3,-2.130528912E-3,2.663161140E-3
6.496507500E-2,-8.522115648E-3,1.065264456E-2,8.522115648E-3
6.615626900E-2,-1.065264456E-2,1.331580617E-2,9.054748341E-3
6.906684400E-2,-1.171790902E-2,1.171790902E-2,6.391586736E-3
7.035146100E-2,-1.171790902E-2,5.326322280E-3,3.195793368E-3
7.316819000E-2,-1.331580617E-2,5.326322280E-3,3.195793368E-3
7.437226900E-2,-2.450108156E-2,1.118527725E-2,1.597896684E-3
7.727053600E-2,-3.355583176E-2,1.225054078E-2,4.261057824E-3
7.854473100E-2,-3.302319720E-2,8.522115648E-3,2.130528912E-3
8.137380600E-2,-2.876213938E-2,-2.130528912E-3,-1.065264456E-3
8.295065400E-2,-2.077265643E-2,-1.065264456E-3,-3.728425596E-3
8.521061500E-2,-2.237055451E-2,2.663161140E-3,-2.130528912E-3
8.662019200E-2,-2.024002373E-2,1.171790902E-2,2.663161140E-3
8.929230800E-2,-2.024002373E-2,2.077265643E-2,7.456851192E-3
9.073303800E-2,-1.384843793E-2,1.491370238E-2,4.793690052E-3
9.312500000E-2,0.000000000E0,-1.065264456E-3,-1.597896684E-3
9.481823100E-2,6.391586736E-3,-4.793690052E-3,-1.065264456E-3
9.721292300E-2,2.663161140E-3,-5.326322280E-4,-2.130528912E-3
9.895800000E-2,4.261057824E-3,3.728425596E-3,5.326322280E-4
1.017146920E-1,9.587380104E-3,7.456851192E-3,0.000000000E0
1.032175380E-1,1.757686399E-2,3.195793368E-3,-1.597896684E-3
1.054608460E-1,2.396845073E-2,2.130528912E-3,-1.597896684E-3
1.071373080E-1,2.130528912E-2,4.261057824E-3,0.000000000E0
1.097094230E-1,1.597896591E-2,6.924218964E-3,1.065264456E-3
1.112484610E-1,1.384843793E-2,7.456851192E-3,3.728425596E-3
1.136389610E-1,7.989482954E-3,2.663161140E-3,3.728425596E-3
1.155071150E-1,1.065264456E-2,-9.587380104E-3,-5.326322280E-4
1.182507670E-1,1.171790902E-2,-1.810949668E-2,-2.663161140E-3
1.194548840E-1,1.065264456E-2,-1.597896591E-2,-1.065264456E-3
1.218486540E-1,9.054748341E-3,-5.326322280E-3,5.326322280E-4
1.237780000E-1,7.456851192E-3,2.130528912E-3,4.793690052E-3
1.259687310E-1,6.924218964E-3,5.858954508E-3,6.924218964E-3
1.276382310E-1,1.118527725E-2,4.261057824E-3,3.728425596E-3
1.303704610E-1,1.171790902E-2,5.326322280E-4,-5.326322280E-4
1.316228080E-1,7.989482954E-3,-2.663161140E-3,-2.130528912E-3
1.345167670E-1,4.261057824E-3,0.000000000E0,-3.728425596E-3
1.357644230E-1,-1.597896684E-3,5.326322280E-4,-1.065264456E-3
1.386188050E-1,-4.261057824E-3,-5.326322280E-4,-1.065264456E-3
1.398244610E-1,-1.065264456E-3,-5.858954508E-3,-2.663161140E-3
1.427205360E-1,2.130528912E-3,-6.924218964E-3,-1.065264456E-3
1.441468070E-1,2.130528912E-3,-1.065264456E-3,2.130528912E-3
1.467774210E-1,-2.663161140E-3,3.195793368E-3,3.195793368E-3
1.479627690E-1,-3.728425596E-3,5.326322280E-3,3.195793368E-3
1.508449210E-1,-1.597896684E-3,2.663161140E-3,1.065264456E-3
1.522406920E-1,4.261057824E-3,-5.326322280E-3,-2.130528912E-3
1.549474210E-1,4.261057824E-3,-3.728425596E-3,-4.261057824E-3
1.563800380E-1,5.858954508E-3,-1.065264456E-3,-1.597896684E-3
1.590483440E-1,6.924218964E-3,3.728425596E-3,5.326322280E-4
1.602880000E-1,7.456851192E-3,9.054748341E-3,1.597896684E-3
1.631503820E-1,9.587380104E-3,4.793690052E-3,2.130528912E-3
1.645282690E-1,1.384843793E-2,3.728425596E-3,2.130528912E-3
1.670378460E-1,1.065264456E-2,1.065264456E-3,5.326322280E-4
1.685061150E-1,7.989482954E-3,2.663161140E-3,1.597896684E-3
1.711086150E-1,2.663161140E-3,2.130528912E-3,3.195793368E-3
1.725842310E-1,1.065264456E-3,3.728425596E-3,1.065264456E-3
1.748537310E-1,-5.326322280E-4,5.326322280E-4,5.326322280E-4
1.765959610E-1,-1.065264456E-3,5.326322280E-4,0.000000000E0
1.789543460E-1,-3.728425596E-3,1.597896684E-3,-5.326322280E-4
1.806755770E-1,-5.858954508E-3,7.456851192E-3,0.000000000E0
1.833088840E-1,-6.391586736E-3,9.587380104E-3,1.597896684E-3
1.850206540E-1,-1.225054078E-2,1.118527725E-2,-5.326322280E-4
1.874874610E-1,-1.225054078E-2,1.012001187E-2,1.065264456E-3
1.888426540E-1,-1.438106969E-2,2.663161140E-3,1.065264456E-3
1.912911920E-1,-1.810949668E-2,2.130528912E-3,0.000000000E0
1.929675770E-1,-2.237055451E-2,5.326322280E-4,-1.065264456E-3
1.952880000E-1,-2.024002373E-2,3.195793368E-3,-1.597896684E-3
1.973001920E-1,-2.130528912E-2,3.728425596E-3,-1.065264456E-3
1.994380000E-1,-1.810949668E-2,1.597896684E-3,2.663161140E-3
2.011745000E-1,-1.331580617E-2,7.456851192E-3,2.130528912E-3
2.035880770E-1,-1.171790902E-2,6.924218964E-3,3.728425596E-3
2.054311540E-1,-5.326322280E-3,7.989482954E-3,5.326322280E-3
2.076289230E-1,-4.261057824E-3,1.012001187E-2,4.793690052E-3
2.093292310E-1,-1.065264456E-3,8.522115648E-3,3.728425596E-3
2.119266920E-1,2.663161140E-3,1.065264456E-3,1.065264456E-3
2.134321150E-1,3.195793368E-3,0.000000000E0,0.000000000E0
2.162038050E-1,5.858954508E-3,5.326322280E-4,1.065264456E-3
2.177766920E-1,8.522115648E-3,2.130528912E-3,3.195793368E-3
2.203064590E-1,5.858954508E-3,1.065264456E-3,5.326322280E-3
2.216706540E-1,8.522115648E-3,2.663161140E-3,3.195793368E-3
2.244086510E-1,1.065264456E-2,2.663161140E-3,1.597896684E-3
2.258476150E-1,1.065264456E-2,2.130528912E-3,1.597896684E-3
2.284590740E-1,9.054748341E-3,-1.597896684E-3,0.000000000E0
2.296519610E-1,9.054748341E-3,-5.326322280E-4,1.065264456E-3
2.325259970E-1,5.326322280E-3,-2.663161140E-3,-5.326322280E-4
2.339108840E-1,6.924218964E-3,-1.065264456E-3,-1.597896684E-3
2.366276900E-1,7.456851192E-3,-2.663161140E-3,-5.326322280E-4
2.378670770E-1,5.858954508E-3,-2.130528912E-3,-5.326322280E-4
2.407286130E-1,5.326322280E-3,2.130528912E-3,-1.065264456E-3
2.419569610E-1,4.261057824E-3,1.597896684E-3,0.000000000E0
2.448297660E-1,5.326322280E-3,5.326322280E-4,5.326322280E-4
2.461838070E-1,5.326322280E-3,-1.065264456E-3,-5.326322280E-4
2.486585380E-1,1.065264456E-3,-4.261057824E-3,-5.326322280E-4
2.501955380E-1,2.663161140E-3,-4.793690052E-3,-1.597896684E-3
2.527841540E-1,3.728425596E-3,-3.195793368E-3,-1.065264456E-3
2.541614230E-1,4.261057824E-3,-2.130528912E-3,-1.597896684E-3
2.565494610E-1,5.326322280E-3,-5.326322280E-4,-5.326322280E-4
2.583293460E-1,6.391586736E-3,2.130528912E-3,-1.065264456E-3
2.606736150E-1,9.587380104E-3,2.663161140E-3,0.000000000E0
2.623799610E-1,8.522115648E-3,2.130528912E-3,-5.326322280E-4
2.648740000E-1,9.054748341E-3,2.663161140E-3,-1.597896684E-3
2.669062690E-1,8.522115648E-3,0.000000000E0,0.000000000E0
2.690398840E-1,7.989482954E-3,-1.065264456E-3,-1.597896684E-3
2.708043840E-1,4.793690052E-3,-2.663161140E-3,0.000000000E0
2.729855770E-1,4.261057824E-3,3.195793368E-3,-2.130528912E-3
2.746198460E-1,5.326322280E-4,2.663161140E-3,-1.065264456E-3
2.769539610E-1,-1.065264456E-3,2.663161140E-3,-1.597896684E-3
2.786648460E-1,-3.728425596E-3,3.195793368E-3,-3.195793368E-3
2.810731540E-1,-3.195793368E-3,2.663161140E-3,-2.130528912E-3
2.827918840E-1,-6.391586736E-3,4.261057824E-3,-3.728425596E-3
2.852016150E-1,-8.522115648E-3,2.663161140E-3,-2.663161140E-3
2.870882690E-1,-9.587380104E-3,1.597896684E-3,-2.663161140E-3
2.892849610E-1,-1.065264456E-2,2.130528912E-3,-1.597896684E-3
2.908881540E-1,-1.012001187E-2,1.597896684E-3,-2.130528912E-3
2.935750000E-1,-1.012001187E-2,2.130528912E-3,-2.130528912E-3
2.949808840E-1,-1.225054078E-2,3.195793368E-3,-1.597896684E-3
2.978751510E-1,-1.118527725E-2,4.261057824E-3,1.065264456E-3
2.991513460E-1,-7.456851192E-3,6.924218964E-3,-1.065264456E-3
3.019769200E-1,-7.456851192E-3,6.924218964E-3,1.597896684E-3
3.031715380E-1,-7.456851192E-3,6.391586736E-3,3.195793368E-3
3.060784200E-1,-6.924218964E-3,4.261057824E-3,1.597896684E-3
3.074799230E-1,-4.793690052E-3,4.793690052E-3,1.065264456E-3
3.101281120E-1,-4.793690052E-3,2.663161140E-3,2.663161140E-3
3.112918070E-1,-3.728425596E-3,4.261057824E-3,2.663161140E-3
3.141951120E-1,-3.728425596E-3,2.130528912E-3,1.597896684E-3
3.153934230E-1,-1.597896684E-3,4.793690052E-3,3.728425596E-3
3.182976510E-1,-1.065264456E-3,6.391586736E-3,3.195793368E-3
3.195456540E-1,-2.130528912E-3,6.391586736E-3,3.195793368E-3
3.223994200E-1,-5.326322280E-4,4.261057824E-3,2.663161140E-3
3.236148460E-1,-2.130528912E-3,3.195793368E-3,2.130528912E-3
3.265008820E-1,-4.793690052E-3,2.663161140E-3,-1.065264456E-3
3.281654610E-1,-4.793690052E-3,2.663161140E-3,1.597896684E-3
3.303880000E-1,-5.858954508E-3,5.326322280E-4,1.065264456E-3
3.317546920E-1,-2.130528912E-3,3.195793368E-3,3.195793368E-3
3.344183070E-1,-4.793690052E-3,2.663161140E-3,2.663161140E-3
3.358381920E-1,-3.728425596E-3,2.130528912E-3,1.065264456E-3
3.381883840E-1,-1.597896684E-3,3.195793368E-3,2.130528912E-3
3.399276150E-1,-2.130528912E-3,0.000000000E0,0.000000000E0
3.422939610E-1,2.663161140E-3,-1.597896684E-3,1.065264456E-3
3.440032690E-1,1.597896684E-3,-5.326322280E-4,5.326322280E-4
3.464185770E-1,3.195793368E-3,2.130528912E-3,0.000000000E0
3.483107300E-1,5.326322280E-3,0.000000000E0,-1.065264456E-3
3.505126540E-1,4.793690052E-3,5.326322280E-4,0.000000000E0
3.522629230E-1,5.858954508E-3,1.065264456E-3,-2.130528912E-3
3.546538070E-1,5.858954508E-3,1.597896684E-3,-1.065264456E-3
3.562451540E-1,6.391586736E-3,1.065264456E-3,1.065264456E-3
3.586295770E-1,6.924218964E-3,1.065264456E-3,-1.065264456E-3
3.603483460E-1,2.663161140E-3,0.000000000E0,-1.597896684E-3
3.627192300E-1,4.793690052E-3,5.326322280E-4,-1.597896684E-3
3.645090380E-1,1.597896684E-3,5.326322280E-4,-1.065264456E-3
3.668811920E-1,1.065264456E-3,2.130528912E-3,-1.065264456E-3
3.687504230E-1,2.663161140E-3,-2.663161140E-3,-2.663161140E-3
3.709466150E-1,1.597896684E-3,5.326322280E-4,-1.597896684E-3
3.726506920E-1,2.130528912E-3,4.793690052E-3,-1.065264456E-3
3.752323460E-1,0.000000000E0,2.130528912E-3,-5.326322280E-4
3.766356920E-1,5.326322280E-4,1.065264456E-3,-2.130528912E-3
3.795382690E-1,0.000000000E0,0.000000000E0,-1.597896684E-3
3.807419610E-1,5.326322280E-4,2.130528912E-3,-2.130528912E-3
3.836527270E-1,-1.597896684E-3,-2.130528912E-3,-2.663161140E-3
3.848939230E-1,-2.130528912E-3,3.728425596E-3,-1.065264456E-3
3.877549580E-1,-2.663161140E-3,2.663161140E-3,-2.130528912E-3
3.891423460E-1,-1.597896684E-3,1.065264456E-3,0.000000000E0
3.918076920E-1,-1.065264456E-3,4.261057824E-3,-3.195793368E-3
3.929923070E-1,-1.065264456E-3,2.130528912E-3,-2.130528912E-3
3.958779580E-1,-5.326322280E-4,1.597896684E-3,-1.597896684E-3
3.971441920E-1,-2.130528912E-3,2.663161140E-3,-2.663161140E-3
3.999788810E-1,-4.261057824E-3,1.597896684E-3,-3.195793368E-3
4.012455380E-1,-3.195793368E-3,3.195793368E-3,-2.130528912E-3
4.040803040E-1,-1.597896684E-3,1.065264456E-3,-3.195793368E-3
4.052978460E-1,-1.065264456E-3,1.597896684E-3,-2.663161140E-3
4.081814970E-1,-1.597896684E-3,2.663161140E-3,-2.130528912E-3
4.095571530E-1,-1.597896684E-3,3.195793368E-3,-1.065264456E-3
4.119660380E-1,-3.195793368E-3,2.130528912E-3,-2.663161140E-3
4.133810770E-1,-2.130528912E-3,2.663161140E-3,-2.130528912E-3
4.160872690E-1,-2.130528912E-3,5.326322280E-4,-1.065264456E-3
4.175653460E-1,-2.130528912E-3,1.065264456E-3,-1.597896684E-3
4.198645770E-1,-1.065264456E-3,2.663161140E-3,-2.663161140E-3
4.216059610E-1,-2.663161140E-3,2.130528912E-3,-1.597896684E-3
4.239519610E-1,1.065264456E-3,2.130528912E-3,-5.326322280E-4
4.257334610E-1,-1.065264456E-3,1.597896684E-3,-2.663161140E-3
4.281365770E-1,0.000000000E0,1.065264456E-3,-2.130528912E-3
4.299680000E-1,2.130528912E-3,0.000000000E0,-2.130528912E-3
4.321578840E-1,4.793690052E-3,2.130528912E-3,-2.130528912E-3
4.338650380E-1,4.793690052E-3,1.597896684E-3,-3.728425596E-3
4.362759230E-1,3.728425596E-3,2.130528912E-3,-3.195793368E-3
4.379575770E-1,2.130528912E-3,1.597896684E-3,-4.261057824E-3
4.403222690E-1,1.065264456E-3,2.130528912E-3,-5.326322280E-3
4.420761150E-1,0.000000000E0,1.065264456E-3,-3.728425596E-3
4.443933840E-1,2.663161140E-3,1.065264456E-3,-2.663161140E-3
4.461330770E-1,3.195793368E-3,1.597896684E-3,-4.261057824E-3
4.486681150E-1,1.597896684E-3,5.326322280E-4,-4.261057824E-3
4.504122300E-1,5.326322280E-4,2.663161140E-3,-1.597896684E-3
4.527258460E-1,-1.065264456E-3,1.597896684E-3,-4.793690052E-3
4.542741920E-1,-5.326322280E-4,3.195793368E-3,-4.793690052E-3
4.569885000E-1,-1.597896684E-3,2.130528912E-3,-3.195793368E-3
4.584622300E-1,-5.326322280E-4,2.663161140E-3,-3.728425596E-3
4.612346120E-1,-5.326322280E-4,1.597896684E-3,-4.261057824E-3
4.625136530E-1,-1.065264456E-3,3.728425596E-3,-3.728425596E-3
4.653361120E-1,-1.597896684E-3,2.663161140E-3,-4.261057824E-3
4.665887690E-1,-1.597896684E-3,2.663161140E-3,-4.261057824E-3
4.694380350E-1,-2.663161140E-3,2.663161140E-3,-3.195793368E-3
4.709590380E-1,-5.326322280E-4,5.326322280E-4,-3.728425596E-3
4.734882270E-1,0.000000000E0,4.261057824E-3,-2.663161140E-3
4.747132300E-1,-2.130528912E-3,2.663161140E-3,-3.728425596E-3
4.775556120E-1,-2.130528912E-3,2.130528912E-3,-2.663161140E-3
4.788152690E-1,1.065264456E-3,4.261057824E-3,-4.261057824E-3
4.816579190E-1,-5.326322280E-4,5.326322280E-3,-5.858954508E-3
4.829071150E-1,-2.130528912E-3,3.195793368E-3,-1.597896684E-3
4.857596890E-1,-1.065264456E-3,4.793690052E-3,-1.597896684E-3
4.871735000E-1,-3.195793368E-3,4.793690052E-3,-2.130528912E-3
4.898624190E-1,-3.728425596E-3,4.261057824E-3,-2.130528912E-3
4.912552300E-1,-4.793690052E-3,4.261057824E-3,1.065264456E-3
4.936691530E-1,-3.728425596E-3,5.858954508E-3,-3.195793368E-3
4.951318840E-1,-4.261057824E-3,3.728425596E-3,-1.597896684E-3
4.977849230E-1,-5.858954508E-3,4.261057824E-3,-1.597896684E-3
4.991973070E-1,-7.989482954E-3,4.261057824E-3,-1.065264456E-3
5.016007690E-1,-6.391586736E-3,5.326322280E-3,-5.326322280E-4
5.035498070E-1,-7.456851192E-3,4.261057824E-3,-2.663161140E-3
5.057100760E-1,-6.924218964E-3,4.261057824E-3,-1.065264456E-3
5.074183460E-1,-7.456851192E-3,5.326322280E-3,-2.663161140E-3
5.098171150E-1,-7.989482954E-3,3.728425596E-3,-2.663161140E-3
5.118145380E-1,-6.391586736E-3,3.195793368E-3,-3.195793368E-3
5.139064610E-1,-4.793690052E-3,6.391586736E-3,-1.065264456E-3
5.155892690E-1,-5.326322280E-3,3.728425596E-3,-1.065264456E-3
5.180708460E-1,-3.195793368E-3,5.858954508E-3,-2.130528912E-3
5.200052300E-1,-4.261057824E-3,6.924218964E-3,-1.065264456E-3
5.221133070E-1,-2.663161140E-3,5.858954508E-3,0.000000000E0
5.239116530E-1,-3.195793368E-3,4.261057824E-3,-1.065264456E-3
5.260984610E-1,-2.130528912E-3,6.391586736E-3,-1.597896684E-3
5.280239610E-1,-3.728425596E-3,6.391586736E-3,-1.597896684E-3
5.303487690E-1,-3.195793368E-3,5.326322280E-3,-2.130528912E-3
5.321349230E-1,-4.793690052E-3,4.793690052E-3,-2.130528912E-3
5.344426920E-1,-4.793690052E-3,5.326322280E-3,-1.597896684E-3
5.359546150E-1,-5.858954508E-3,6.391586736E-3,-1.065264456E-3
5.386590380E-1,-6.924218964E-3,5.326322280E-3,-2.130528912E-3
5.400497690E-1,-7.456851192E-3,5.858954508E-3,-1.597896684E-3
5.429024190E-1,-6.924218964E-3,4.261057824E-3,-4.261057824E-3
5.441492300E-1,-7.456851192E-3,4.261057824E-3,-4.793690052E-3
5.470044580E-1,-3.728425596E-3,1.597896684E-3,-3.195793368E-3
5.483073460E-1,-6.924218964E-3,3.728425596E-3,-2.663161140E-3
5.511060350E-1,-2.663161140E-3,2.130528912E-3,-2.663161140E-3
5.526309610E-1,-1.065264456E-3,2.663161140E-3,-4.793690052E-3
5.551552650E-1,1.597896684E-3,4.261057824E-3,-2.663161140E-3
5.565554610E-1,5.326322280E-4,3.195793368E-3,-5.326322280E-3
5.592218040E-1,1.597896684E-3,3.728425596E-3,-5.858954508E-3
5.605179230E-1,7.456851192E-3,2.130528912E-3,-5.858954508E-3
5.633235350E-1,7.456851192E-3,1.065264456E-3,-5.858954508E-3
5.646641150E-1,9.054748341E-3,2.130528912E-3,-5.858954508E-3
5.674259190E-1,1.225054078E-2,2.130528912E-3,-4.261057824E-3
5.689198070E-1,1.012001187E-2,0.000000000E0,-3.195793368E-3
5.715275340E-1,9.054748341E-3,0.000000000E0,-3.195793368E-3
5.732538460E-1,9.587380104E-3,-5.326322280E-4,-4.261057824E-3
5.755115760E-1,1.118527725E-2,-2.663161140E-3,-2.663161140E-3
5.768537300E-1,8.522115648E-3,-1.065264456E-3,-2.663161140E-3
5.795734990E-1,9.054748341E-3,-1.597896684E-3,-4.793690052E-3
5.810088070E-1,6.924218964E-3,-1.065264456E-3,-4.793690052E-3
5.833769230E-1,7.989482954E-3,-5.326322280E-4,-4.793690052E-3
5.851338070E-1,2.663161140E-3,2.130528912E-3,-4.261057824E-3
5.874383070E-1,2.663161140E-3,5.326322280E-4,-5.326322280E-3
5.891849990E-1,1.065264456E-3,-5.326322280E-4,-2.663161140E-3
5.917347690E-1,-2.663161140E-3,-1.065264456E-3,-4.261057824E-3
5.934198840E-1,-2.663161140E-3,-1.065264456E-3,-4.793690052E-3
5.956128840E-1,-3.728425596E-3,1.065264456E-3,-3.195793368E-3
5.972800380E-1,-8.522115648E-3,1.065264456E-3,-4.793690052E-3
5.998808070E-1,-7.456851192E-3,5.326322280E-3,-2.663161140E-3
6.014225380E-1,-9.054748341E-3,2.663161140E-3,-3.195793368E-3
6.038809230E-1,-1.225054078E-2,4.261057824E-3,-4.261057824E-3
6.055173840E-1,-1.384843793E-2,3.195793368E-3,-3.195793368E-3
6.079076150E-1,-1.597896591E-2,3.728425596E-3,-3.195793368E-3
6.095757690E-1,-1.491370238E-2,4.793690052E-3,-4.793690052E-3
6.120482300E-1,-1.757686399E-2,3.728425596E-3,-3.195793368E-3
6.139133840E-1,-1.651159860E-2,3.195793368E-3,-3.195793368E-3
6.161751530E-1,-1.438106969E-2,2.130528912E-3,-2.130528912E-3
6.177798840E-1,-1.544633508E-2,5.326322280E-4,-3.195793368E-3
6.203602300E-1,-1.384843793E-2,3.728425596E-3,-1.597896684E-3
6.218116150E-1,-1.331580617E-2,5.858954508E-3,-1.597896684E-3
6.246118040E-1,-1.331580617E-2,3.728425596E-3,-2.663161140E-3
6.259568460E-1,-1.384843793E-2,7.456851192E-3,-1.597896684E-3
6.287135340E-1,-1.438106969E-2,4.793690052E-3,1.065264456E-3
6.299953460E-1,-1.065264456E-2,2.130528912E-3,-1.065264456E-3
6.328148030E-1,-9.587380104E-3,3.728425596E-3,-1.597896684E-3
6.343941530E-1,-1.012001187E-2,3.195793368E-3,-5.326322280E-4
6.368708800E-1,-7.989482954E-3,3.728425596E-3,0.000000000E0
6.381871920E-1,-8.522115648E-3,3.728425596E-3,-1.065264456E-3
6.409379960E-1,-7.989482954E-3,4.793690052E-3,-5.326322280E-4
6.423014230E-1,-6.924218964E-3,2.130528912E-3,-1.065264456E-3
6.450396880E-1,-6.924218964E-3,2.663161140E-3,-1.597896684E-3
6.463186920E-1,-5.326322280E-3,3.195793368E-3,-5.326322280E-4
6.491410340E-1,-6.391586736E-3,2.663161140E-3,-2.130528912E-3
6.505203460E-1,-2.663161140E-3,4.261057824E-3,-1.597896684E-3
6.532951110E-1,-4.261057824E-3,5.326322280E-4,1.597896684E-3
6.547517300E-1,-1.065264456E-3,4.793690052E-3,1.065264456E-3
6.571083840E-1,-2.663161140E-3,3.728425596E-3,1.597896684E-3
6.586551530E-1,-1.065264456E-3,3.728425596E-3,5.326322280E-4
6.612354610E-1,-1.597896684E-3,2.130528912E-3,-1.597896684E-3
6.626431530E-1,5.326322280E-4,1.597896684E-3,1.597896684E-3
6.650456920E-1,-1.065264456E-3,3.195793368E-3,1.065264456E-3
6.668036920E-1,0.000000000E0,2.130528912E-3,5.326322280E-4
6.691349230E-1,3.195793368E-3,1.065264456E-3,0.000000000E0
6.708845760E-1,3.728425596E-3,1.597896684E-3,0.000000000E0
6.734643070E-1,4.261057824E-3,-5.326322280E-4,0.000000000E0
6.751699230E-1,5.326322280E-3,-6.924218964E-3,-2.663161140E-3
6.773649610E-1,5.858954508E-3,-3.195793368E-3,-3.728425596E-3
6.790062690E-1,4.793690052E-3,-4.261057824E-3,-1.597896684E-3
6.814686150E-1,7.456851192E-3,5.326322280E-4,-5.326322280E-4
6.831254610E-1,1.171790902E-2,6.391586736E-3,5.326322280E-4
6.855893070E-1,1.278317347E-2,5.326322280E-3,1.597896684E-3
6.871610760E-1,1.118527725E-2,7.456851192E-3,5.858954508E-3
6.896009990E-1,7.456851192E-3,5.326322280E-3,4.261057824E-3
6.913181530E-1,4.793690052E-3,1.597896684E-3,3.728425596E-3
6.937846530E-1,1.597896684E-3,-5.326322280E-4,2.663161140E-3
6.955794990E-1,1.597896684E-3,-5.326322280E-3,4.261057824E-3
6.977916150E-1,-3.195793368E-3,-6.924218964E-3,3.195793368E-3
6.993846530E-1,-2.663161140E-3,-4.261057824E-3,2.663161140E-3
7.020946920E-1,-2.663161140E-3,5.326322280E-4,4.793690052E-3
7.035160380E-1,-2.663161140E-3,5.326322280E-3,4.793690052E-3
7.063508800E-1,-3.195793368E-3,7.456851192E-3,2.663161140E-3
7.075884220E-1,-4.793690052E-3,7.456851192E-3,3.728425596E-3
7.104541880E-1,-5.858954508E-3,0.000000000E0,1.597896684E-3
7.117549610E-1,-3.195793368E-3,-2.130528912E-3,0.000000000E0
7.145563800E-1,-4.793690052E-3,-4.261057824E-3,-2.663161140E-3
7.159860760E-1,-6.391586736E-3,-2.663161140E-3,-1.065264456E-3
7.186062260E-1,-5.326322280E-3,-3.195793368E-3,0.000000000E0
7.199608460E-1,1.065264456E-3,-1.065264456E-3,5.326322280E-4
7.226729950E-1,5.858954508E-3,1.065264456E-3,2.663161140E-3
7.239089610E-1,7.989482954E-3,0.000000000E0,3.195793368E-3
7.267751880E-1,1.491370238E-2,-6.924218964E-3,3.728425596E-3
7.280133460E-1,1.704423130E-2,5.326322280E-4,1.597896684E-3
7.308768800E-1,1.597896591E-2,5.326322280E-4,4.793690052E-3
7.325278460E-1,1.438106969E-2,2.663161140E-3,4.261057824E-3
7.349788800E-1,1.651159860E-2,1.597896684E-3,2.663161140E-3
7.363881920E-1,1.864212751E-2,5.326322280E-4,1.065264456E-3
7.388409220E-1,1.704423130E-2,-1.065264456E-3,2.663161140E-3
7.403345380E-1,1.225054078E-2,-1.597896684E-3,1.597896684E-3
7.429571920E-1,1.065264456E-3,3.728425596E-3,1.597896684E-3
7.443213840E-1,-2.663161140E-3,2.130528912E-3,1.597896684E-3
7.466887300E-1,-4.261057824E-3,-5.326322280E-4,5.326322280E-4
7.484485380E-1,-5.858954508E-3,-3.728425596E-3,1.065264456E-3
7.509328460E-1,-9.054748341E-3,-4.261057824E-3,1.065264456E-3
7.525331530E-1,-1.438106969E-2,-2.663161140E-3,3.195793368E-3
7.549533070E-1,-1.704423130E-2,3.728425596E-3,2.130528912E-3
7.568154220E-1,-1.970739290E-2,2.663161140E-3,2.663161140E-3
7.590511530E-1,-1.864212751E-2,1.597896684E-3,1.065264456E-3
7.609150380E-1,-1.651159860E-2,-3.728425596E-3,-1.597896684E-3
7.631981530E-1,-9.587380104E-3,-4.261057824E-3,-5.326322280E-4
7.649314220E-1,-1.278317347E-2,-5.326322280E-4,-1.065264456E-3
7.672566150E-1,-1.065264456E-2,5.326322280E-4,1.597896684E-3
7.689008070E-1,-5.858954508E-3,2.663161140E-3,3.195793368E-3
7.717167640E-1,0.000000000E0,2.130528912E-3,2.130528912E-3
7.731027300E-1,4.793690052E-3,-5.326322280E-4,3.195793368E-3
7.754058460E-1,7.456851192E-3,-4.261057824E-3,4.793690052E-3
7.771982300E-1,9.054748341E-3,1.065264456E-3,5.858954508E-3
7.794298070E-1,9.587380104E-3,2.130528912E-3,2.130528912E-3
7.810507300E-1,1.065264456E-2,4.261057824E-3,4.261057824E-3
7.837553840E-1,1.012001187E-2,-5.326322280E-4,3.195793368E-3
7.851803840E-1,7.456851192E-3,1.065264456E-3,2.663161140E-3
7.880222640E-1,6.924218964E-3,-1.597896684E-3,3.195793368E-3
7.892728840E-1,5.326322280E-3,0.000000000E0,4.793690052E-3
7.921240720E-1,-5.326322280E-4,0.000000000E0,6.391586736E-3
7.933751920E-1,-1.597896684E-3,1.065264456E-3,3.728425596E-3
7.962253800E-1,-4.793690052E-3,0.000000000E0,4.793690052E-3
7.976384220E-1,-5.326322280E-3,-2.663161140E-3,3.728425596E-3
8.002746110E-1,-8.522115648E-3,-5.326322280E-4,3.728425596E-3
8.014487690E-1,-1.331580617E-2,-5.326322280E-4,3.728425596E-3
8.043408410E-1,-1.544633508E-2,0.000000000E0,4.793690052E-3
8.056418450E-1,-1.651159860E-2,-5.326322280E-4,4.261057824E-3
8.084421490E-1,-1.384843793E-2,-2.663161140E-3,3.195793368E-3
8.096858070E-1,-1.384843793E-2,-4.261057824E-3,2.663161140E-3
8.125442640E-1,-7.989482954E-3,-3.195793368E-3,2.130528912E-3
8.138789990E-1,-7.989482954E-3,-2.130528912E-3,4.793690052E-3
8.166463800E-1,-3.195793368E-3,0.000000000E0,4.793690052E-3
8.184567690E-1,-2.663161140E-3,-1.065264456E-3,6.924218964E-3
8.205405760E-1,1.597896684E-3,-5.326322280E-4,5.858954508E-3
8.219761150E-1,3.728425596E-3,5.326322280E-4,4.261057824E-3
8.248049180E-1,4.793690052E-3,0.000000000E0,4.261057824E-3
8.260861920E-1,4.261057824E-3,-2.130528912E-3,4.261057824E-3
8.283979610E-1,3.195793368E-3,-1.597896684E-3,3.728425596E-3
8.303850380E-1,3.728425596E-3,-3.728425596E-3,4.261057824E-3
8.325755380E-1,1.597896684E-3,-3.195793368E-3,6.391586736E-3
8.345118070E-1,2.130528912E-3,-2.663161140E-3,3.728425596E-3
8.366846530E-1,-1.597896684E-3,-2.663161140E-3,4.793690052E-3
8.385171920E-1,-4.793690052E-3,-5.326322280E-4,4.793690052E-3
8.407150760E-1,-3.728425596E-3,1.065264456E-3,4.261057824E-3
8.424222300E-1,-5.858954508E-3,-3.195793368E-3,4.793690052E-3
8.448933840E-1,-7.989482954E-3,-4.793690052E-3,5.326322280E-3
8.464785380E-1,-1.012001187E-2,-3.195793368E-3,3.195793368E-3
8.488113070E-1,-1.331580617E-2,-4.793690052E-3,4.261057824E-3
8.505541150E-1,-1.331580617E-2,-4.793690052E-3,2.663161140E-3
8.530449990E-1,-1.278317347E-2,-4.793690052E-3,3.195793368E-3
8.547286150E-1,-1.171790902E-2,-5.858954508E-3,4.793690052E-3
8.571154990E-1,-8.522115648E-3,-7.989482954E-3,4.261057824E-3
8.589810760E-1,-5.858954508E-3,-7.989482954E-3,4.261057824E-3
8.614420760E-1,-1.065264456E-3,-6.924218964E-3,4.261057824E-3
8.628214220E-1,-2.130528912E-3,-7.989482954E-3,5.858954508E-3
8.655041150E-1,0.000000000E0,-7.989482954E-3,4.261057824E-3
8.668958070E-1,1.597896684E-3,-1.012001187E-2,4.261057824E-3
8.697383790E-1,5.858954508E-3,-1.065264456E-2,2.663161140E-3
8.709588070E-1,5.326322280E-3,-1.118527725E-2,2.130528912E-3
8.738402640E-1,7.989482954E-3,-1.118527725E-2,3.195793368E-3
8.751576530E-1,5.858954508E-3,-9.587380104E-3,4.793690052E-3
8.779423410E-1,6.924218964E-3,-7.989482954E-3,4.793690052E-3
8.794458070E-1,7.989482954E-3,-1.225054078E-2,4.261057824E-3
8.819991100E-1,7.989482954E-3,-1.171790902E-2,4.261057824E-3
8.832278070E-1,4.793690052E-3,-1.171790902E-2,3.195793368E-3
8.860661870E-1,2.663161140E-3,-1.384843793E-2,3.195793368E-3
8.874904610E-1,2.130528912E-3,-1.278317347E-2,2.663161140E-3
8.901677260E-1,5.326322280E-4,-1.384843793E-2,2.130528912E-3
8.914961150E-1,0.000000000E0,-1.597896591E-2,3.195793368E-3
8.942695720E-1,-1.065264456E-3,-1.491370238E-2,3.728425596E-3
8.955326150E-1,-3.195793368E-3,-1.438106969E-2,2.663161140E-3
8.983714950E-1,-4.793690052E-3,-1.278317347E-2,2.130528912E-3
8.998761920E-1,-2.663161140E-3,-1.278317347E-2,2.663161140E-3
9.022549220E-1,-3.195793368E-3,-1.544633508E-2,1.597896684E-3
9.037586530E-1,-4.261057824E-3,-1.704423130E-2,-5.326322280E-4
9.063496150E-1,-3.728425596E-3,-1.651159860E-2,-5.326322280E-4
9.081001530E-1,-1.597896684E-3,-1.544633508E-2,1.065264456E-3
9.100603840E-1,-2.663161140E-3,-1.544633508E-2,1.597896684E-3
9.118533840E-1,1.065264456E-3,-1.438106969E-2,1.065264456E-3
9.142222680E-1,-2.130528912E-3,-1.757686399E-2,5.326322280E-4
9.159339990E-1,2.663161140E-3,-1.544633508E-2,-5.326322280E-4
9.183545380E-1,2.130528912E-3,-1.651159860E-2,-5.326322280E-4
9.202674220E-1,2.130528912E-3,-1.810949668E-2,-5.326322280E-4
9.223485760E-1,2.663161140E-3,-1.597896591E-2,-5.326322280E-4
9.240486920E-1,4.261057824E-3,-1.651159860E-2,-5.326322280E-4
9.266103450E-1,2.663161140E-3,-1.757686399E-2,-5.326322280E-4
9.282168070E-1,5.858954508E-3,-1.970739290E-2,-1.065264456E-3
9.307126530E-1,6.391586736E-3,-1.917476021E-2,1.065264456E-3
9.323316920E-1,5.326322280E-3,-2.024002373E-2,-5.326322280E-4
9.346299990E-1,2.130528912E-3,-1.864212751E-2,-1.065264456E-3
9.364199610E-1,3.728425596E-3,-1.704423130E-2,-2.663161140E-3
9.389240380E-1,3.195793368E-3,-1.810949668E-2,-1.065264456E-3
9.408352300E-1,2.130528912E-3,-1.810949668E-2,-3.195793368E-3
9.429846150E-1,1.597896684E-3,-1.757686399E-2,-3.195793368E-3
9.444978840E-1,-2.130528912E-3,-1.917476021E-2,-2.130528912E-3
9.471311150E-1,-1.597896684E-3,-2.077265643E-2,-4.261057824E-3
9.485781920E-1,-2.663161140E-3,-1.970739290E-2,-3.728425596E-3
9.514212250E-1,-3.195793368E-3,-1.917476021E-2,-2.663161140E-3
9.527516150E-1,-2.130528912E-3,-2.343581803E-2,-1.065264456E-3
9.555228020E-1,-2.663161140E-3,-1.917476021E-2,-2.663161140E-3
9.568729610E-1,-2.130528912E-3,-2.024002373E-2,-6.924218964E-3
9.596253410E-1,-3.195793368E-3,-2.024002373E-2,-2.663161140E-3
9.611872680E-1,-4.261057824E-3,-2.183792181E-2,-1.597896684E-3
9.636759180E-1,-2.663161140E-3,-2.130528912E-2,-2.663161140E-3
9.648748070E-1,-3.195793368E-3,-2.290318534E-2,-4.261057824E-3
9.677431870E-1,-3.728425596E-3,-2.503371425E-2,-3.728425596E-3
9.691830760E-1,-1.597896684E-3,-2.343581803E-2,-3.195793368E-3
9.718454560E-1,-2.663161140E-3,-2.343581803E-2,-2.663161140E-3
9.732244220E-1,-2.130528912E-3,-2.130528912E-2,-2.663161140E-3
9.759474180E-1,-2.130528912E-3,-2.077265643E-2,-4.261057824E-3
9.772690760E-1,5.326322280E-4,-2.130528912E-2,-2.130528912E-3
9.800497640E-1,0.000000000E0,-2.130528912E-2,-2.130528912E-3
9.814978840E-1,-1.065264456E-3,-2.183792181E-2,-3.195793368E-3
9.839105760E-1,0.000000000E0,-2.450108156E-2,-1.597896684E-3
9.853194220E-1,-1.065264456E-3,-2.503371425E-2,-3.195793368E-3
9.880121150E-1,1.065264456E-3,-2.290318534E-2,-2.130528912E-3
9.894332680E-1,2.130528912E-3,-2.450108156E-2,-1.065264456E-3
9.919761530E-1,1.597896684E-3,-2.343581803E-2,-2.130528912E-3
9.936189610E-1,-1.597896684E-3,-2.396845073E-2,-1.065264456E-3
9.958894610E-1,0.000000000E0,-2.237055451E-2,-1.065264456E-3
9.976891530E-1,1.065264456E-3,-2.663161233E-2,-2.663161140E-3
1.000049692E0,3.195793368E-3,-2.663161233E-2,-3.728425596E-3
1.001930384E0,3.195793368E-3,-2.769687586E-2,-4.261057824E-3
1.004040191E0,1.065264456E-3,-2.663161233E-2,-4.793690052E-3
1.005951307E0,2.130528912E-3,-2.609897964E-2,-3.195793368E-3
1.008409615E0,4.793690052E-3,-2.822950855E-2,-2.663161140E-3
1.009953461E0,5.858954508E-3,-2.609897964E-2,-2.663161140E-3
1.012219499E0,5.858954508E-3,-2.663161233E-2,-5.858954508E-3
1.014052999E0,6.924218964E-3,-2.769687586E-2,-4.793690052E-3
1.016346422E0,6.924218964E-3,-2.769687586E-2,-6.391586736E-3
1.018105807E0,8.522115648E-3,-2.609897964E-2,-5.326322280E-3
1.020613730E0,9.587380104E-3,-2.716424316E-2,-5.326322280E-3
1.022524884E0,5.326322280E-3,-2.450108156E-2,-4.793690052E-3
1.024755422E0,3.195793368E-3,-2.396845073E-2,-4.261057824E-3
1.026162461E0,2.130528912E-3,-2.716424316E-2,-5.858954508E-3
1.028911768E0,2.663161140E-3,-2.396845073E-2,-6.391586736E-3
1.030824268E0,-5.326322280E-4,-2.343581803E-2,-4.261057824E-3
1.033095110E0,0.000000000E0,-2.077265643E-2,-5.858954508E-3
1.034346384E0,1.597896684E-3,-1.917476021E-2,-5.858954508E-3
1.037197417E0,1.651159860E-2,-2.450108156E-2,-1.597896684E-3
1.038460999E0,2.130528912E-2,-6.924218964E-3,-2.130528912E-3
1.041299417E0,2.822950855E-2,1.438106969E-2,1.065264456E-3
1.042819153E0,6.285060197E-2,-7.989482954E-3,1.225054078E-2
1.045349187E0,7.243798673E-2,1.225054078E-2,1.864212751E-2
1.046602461E0,1.651159860E-2,1.001348570E-1,3.036003746E-2
1.049416456E0,-5.326322466E-2,5.592638254E-2,8.042746782E-2
1.050834961E0,-1.059938148E-1,1.491370238E-2,8.575379103E-2
1.053519225E0,-1.406149119E-1,2.343581803E-2,3.036003746E-2
1.054792268E0,-1.699096859E-1,-4.953479767E-2,3.195793368E-3
1.057620725E0,-1.672465205E-1,-1.523328125E-1,8.522115648E-3
1.058981191E0,-1.310275346E-1,-1.661812514E-1,2.130528912E-3
1.061722417E0,-1.033306494E-1,-5.592638254E-2,-7.989482954E-3
1.064015648E0,-8.362326026E-2,5.273059011E-2,9.587380104E-3
1.065668038E0,-4.420847446E-2,6.924218684E-2,3.941478580E-2
1.067064999E0,1.970739290E-2,1.182443574E-1,1.012001187E-2
1.069790307E0,6.391586363E-2,1.342233270E-1,-2.716424316E-2
1.071303038E0,5.965480953E-2,4.633900523E-2,-1.438106969E-2
1.073502307E0,2.290318534E-2,-2.130528912E-3,-5.858954508E-3
1.075349922E0,1.118527725E-2,-3.408846259E-2,-1.757686399E-2
1.077624499E0,3.994741663E-2,-1.230380461E-1,-1.331580617E-2
1.079366268E0,9.853696078E-2,-1.789644361E-1,-2.663161140E-3
1.081745691E0,1.672465205E-1,-1.411475390E-1,7.456851192E-3
1.083759922E0,2.146507949E-1,-2.876213938E-2,2.982740477E-2
1.085797422E0,2.386192381E-1,8.149272949E-2,6.657902896E-2
1.087510807E0,2.540655732E-1,1.432780623E-1,8.841694891E-2
1.089956461E0,2.551308274E-1,1.677791476E-1,6.125270575E-2
1.091575422E0,2.508697808E-1,1.214401498E-1,1.597896591E-2
1.094139653E0,1.358212233E-1,9.587380104E-3,-1.438106969E-2
1.095800191E0,-3.355583176E-2,4.633900523E-2,-1.278317347E-2
1.098029499E0,-1.896170676E-1,1.225054078E-2,2.450108156E-2
1.099924807E0,-2.918824553E-1,-1.970739290E-2,3.781688958E-2
1.102205499E0,-3.462109566E-1,-2.077265643E-2,2.503371425E-2
1.104141538E0,-3.845604658E-1,-6.817692518E-2,4.367584363E-2
1.106352884E0,-4.170510471E-1,-6.285060197E-2,6.498113275E-2
1.108047461E0,-4.335626364E-1,-1.065264456E-3,6.391586363E-2
1.110547922E0,-4.191815555E-1,5.645901710E-2,4.367584363E-2
1.112002345E0,-3.696467578E-1,6.072007492E-2,2.556634694E-2
1.114811532E0,-2.918824553E-1,3.834952042E-2,-5.326322280E-4
1.116123807E0,-1.965412945E-1,2.237055451E-2,-2.450108156E-2
1.118913302E0,-9.960222989E-2,1.544633508E-2,-2.663161233E-2
1.120236884E0,-1.491370238E-2,2.396845073E-2,-3.195793368E-3
1.123015571E0,6.977482140E-2,1.970739290E-2,3.355583176E-2
1.124460422E0,1.486043930E-1,2.183792181E-2,5.805691332E-2
1.127071686E0,2.332929224E-1,-1.331580617E-2,7.510114461E-2
1.128282230E0,3.094593287E-1,-7.616640627E-2,8.362326026E-2
1.131138302E0,3.467435837E-1,-7.030745596E-2,7.723167539E-2
1.132540114E0,3.360909224E-1,-3.142530099E-2,7.084008306E-2
1.135240148E0,3.078614175E-1,-5.326322280E-3,7.190535218E-2
1.136513845E0,2.897519469E-1,-1.438106969E-2,5.858954415E-2
1.139341455E0,2.902845740E-1,-1.438106969E-2,2.450108156E-2
1.140624153E0,2.689792812E-1,-2.130528912E-3,-6.924218964E-3
1.143443071E0,2.008023560E-1,2.290318534E-2,-6.924218964E-3
1.144977576E0,9.480853379E-2,7.510114461E-2,1.225054078E-2
1.147288614E0,-2.183792181E-2,1.123853996E-1,2.450108156E-2
1.148774691E0,-1.219727769E-1,8.735168725E-2,2.663161233E-2
1.151413730E0,-2.125202566E-1,1.651159860E-2,1.597896591E-2
1.152866614E0,-2.924150825E-1,-4.900216311E-2,-1.065264456E-3
1.155340384E0,-4.111920893E-1,-8.202536404E-2,-1.118527725E-2
1.156955845E0,-4.601942301E-1,-5.006742850E-2,-2.130528912E-3
1.159309614E0,-4.612595141E-1,-1.384843793E-2,7.989482954E-3
1.161006884E0,-4.095941782E-1,-1.065264456E-3,1.597896591E-2
1.163644038E0,-3.083940744E-1,-4.261057824E-3,1.597896591E-2
1.165262884E0,-1.912149638E-1,-4.261057824E-3,1.012001187E-2
1.167520653E0,-8.042746782E-2,1.704423130E-2,4.793690052E-3
1.169128076E0,3.728425596E-3,5.006742850E-2,7.989482954E-3
1.171701384E0,7.137271762E-2,6.764429063E-2,1.491370238E-2
1.173220922E0,1.326254308E-1,5.113269389E-2,2.183792181E-2
1.175589999E0,1.933455020E-1,1.438106969E-2,2.290318534E-2
1.177346076E0,2.316950262E-1,-3.089267015E-2,2.130528912E-2
1.179862384E0,2.450108230E-1,-4.633900523E-2,2.876213938E-2
1.181468730E0,2.354234457E-1,-3.302319720E-2,3.834952042E-2
1.183971230E0,2.146507949E-1,-1.331580617E-2,5.060006306E-2
1.185759922E0,2.055960447E-1,-6.924218964E-3,5.752427876E-2
1.187962153E0,1.976065636E-1,-1.651159860E-2,5.486112088E-2
1.189601076E0,1.864212751E-1,-2.183792181E-2,4.793690145E-2
1.192345499E0,1.443433315E-1,-1.491370238E-2,3.568635881E-2
1.193896114E0,8.202536404E-2,1.012001187E-2,2.556634694E-2
1.196496147E0,7.989482954E-3,3.515372798E-2,8.522115648E-3
1.197788538E0,-6.018744037E-2,4.101268202E-2,-6.924218964E-3
1.200598840E0,-1.225054115E-1,2.237055451E-2,-2.024002373E-2
1.201867422E0,-1.752360016E-1,-1.171790902E-2,-2.450108156E-2
1.204700763E0,-2.253034264E-1,-3.302319720E-2,-1.651159860E-2
1.206398884E0,-2.695119083E-1,-4.101268202E-2,5.326322280E-4
1.208750763E0,-2.929477394E-1,-3.675162420E-2,1.384843793E-2
1.209997076E0,-2.860234976E-1,-3.994741663E-2,2.396845073E-2
1.212818186E0,-2.466087192E-1,-5.539375171E-2,2.130528912E-2
1.214217653E0,-1.475391239E-1,-6.657902896E-2,1.171790902E-2
1.216919840E0,-7.510114461E-2,-4.207794741E-2,4.261057824E-3
1.218210076E0,-4.261057824E-3,-1.597896684E-3,-5.326322280E-4
1.221021878E0,6.125270575E-2,3.781688958E-2,5.326322280E-4
1.222331076E0,1.235706806E-1,5.912217870E-2,-4.261057824E-3
1.225123955E0,1.805623323E-1,5.699164793E-2,-3.195793368E-3
1.226599384E0,2.119876295E-1,4.314320907E-2,-5.326322280E-4
1.228994614E0,2.135855258E-1,2.290318534E-2,1.118527725E-2
1.230604191E0,1.928128600E-1,4.793690052E-3,2.343581803E-2
1.233100345E0,1.613875628E-1,-1.171790902E-2,3.195793182E-2
1.234478268E0,1.241033077E-1,-3.142530099E-2,3.568635881E-2
1.236947537E0,9.214537591E-2,-4.261057824E-2,3.515372798E-2
1.238596884E0,5.113269389E-2,-4.101268202E-2,3.249056637E-2
1.240955537E0,9.587380104E-3,-2.609897964E-2,2.609897964E-2
1.242662884E0,-3.249056637E-2,1.065264456E-3,1.917476021E-2
1.245068730E0,-7.243798673E-2,2.609897964E-2,1.012001187E-2
1.246958653E0,-1.049285457E-1,3.355583176E-2,-2.130528912E-3
1.249211614E0,-1.257012039E-1,2.183792181E-2,-1.544633508E-2
1.250945884E0,-1.459412277E-1,4.793690052E-3,-2.077265643E-2
1.253323961E0,-1.651159972E-1,-1.225054078E-2,-1.491370238E-2
1.255012307E0,-1.773665249E-1,-2.024002373E-2,-2.130528912E-3
1.257351614E0,-1.837581247E-1,-2.769687586E-2,1.438106969E-2
1.259050345E0,-1.699096859E-1,-2.876213938E-2,2.290318534E-2
1.261444537E0,-1.384843737E-1,-4.048004746E-2,2.876213938E-2
1.263203691E0,-9.480853379E-2,-3.994741663E-2,2.929477207E-2
1.265518422E0,-4.740426689E-2,-3.568635881E-2,2.876213938E-2
1.267487653E0,3.195793368E-3,-1.864212751E-2,2.769687586E-2
1.269632461E0,5.645901710E-2,2.130528912E-3,2.556634694E-2
1.271449153E0,1.065264493E-1,1.864212751E-2,2.024002373E-2
1.274056416E0,1.539307088E-1,2.503371425E-2,1.757686399E-2
1.275351576E0,1.997370869E-1,3.142530099E-2,1.544633508E-2
1.278157763E0,2.008023560E-1,3.036003746E-2,2.237055451E-2
1.279473114E0,1.826928556E-1,2.609897964E-2,2.876213938E-2
1.282259378E0,1.491370201E-1,1.544633508E-2,3.568635881E-2
1.283583191E0,1.033306494E-1,-3.728425596E-3,4.101268202E-2
1.286360839E0,5.699164793E-2,-2.609897964E-2,4.261057824E-2
1.288023999E0,6.924218964E-3,-4.261057824E-2,4.367584363E-2
1.290410839E0,-4.527373984E-2,-4.687163606E-2,4.261057824E-2
1.291718768E0,-9.054747969E-2,-4.101268202E-2,4.207794741E-2
1.294477878E0,-1.225054115E-1,-3.089267015E-2,3.728425503E-2
1.295898499E0,-1.422128081E-1,-1.651159860E-2,2.982740477E-2
1.298578916E0,-1.581917703E-1,-4.261057824E-3,2.290318534E-2
1.300021999E0,-1.629854590E-1,5.858954508E-3,1.597896591E-2
1.302680109E0,-1.656486243E-1,1.118527725E-2,1.438106969E-2
1.303998345E0,-1.651159972E-1,8.522115648E-3,1.544633508E-2
1.306781916E0,-1.587243974E-1,0.000000000E0,1.970739290E-2
1.308585845E0,-1.443433315E-1,-1.704423130E-2,2.183792181E-2
1.310754614E0,-1.214401498E-1,-3.408846259E-2,2.663161233E-2
1.312120576E0,-9.321063757E-2,-4.527373984E-2,3.195793182E-2
1.314820230E0,-5.752427876E-2,-4.687163606E-2,3.515372798E-2
1.316277461E0,-1.810949668E-2,-3.941478580E-2,3.941478580E-2
1.318558807E0,2.183792181E-2,-2.290318534E-2,3.994741663E-2
1.320379191E0,6.444849819E-2,-6.924218964E-3,3.834952042E-2
1.322734153E0,9.960222989E-2,5.858954508E-3,3.195793182E-2
1.324453961E0,1.288969964E-1,1.065264456E-2,2.929477207E-2
1.326799576E0,1.438107044E-1,1.118527725E-2,2.450108156E-2
1.328719768E0,1.470064968E-1,1.065264456E-3,2.663161233E-2
1.330811614E0,1.352885813E-1,-9.587380104E-3,2.876213938E-2
1.332641422E0,1.107875034E-1,-2.503371425E-2,3.302319720E-2
1.335105884E0,8.202536404E-2,-2.716424316E-2,4.048004746E-2
1.336638307E0,4.101268202E-2,-3.355583176E-2,4.580637068E-2
1.339291614E0,-1.065264456E-3,-3.941478580E-2,4.687163606E-2
1.340828807E0,-4.048004746E-2,-4.154531285E-2,4.740426689E-2
1.343095730E0,-6.870955974E-2,-4.314320907E-2,3.994741663E-2
1.344929114E0,-9.800432622E-2,-4.527373984E-2,3.355583176E-2
1.347273230E0,-1.166464612E-1,-4.687163606E-2,2.716424316E-2
1.349119153E0,-1.395496428E-1,-3.036003746E-2,1.810949668E-2
1.351336614E0,-1.342233270E-1,-1.651159860E-2,1.225054078E-2
1.352989384E0,-1.129180342E-1,-4.793690145E-2,1.438106969E-2
1.355757685E0,-9.054747969E-2,-2.876213938E-2,3.728425596E-3
1.357189499E0,-6.977482140E-2,-2.929477207E-2,9.587380104E-3
1.359859108E0,-5.539375171E-2,-2.396845073E-2,2.237055451E-2
1.361221614E0,-4.633900523E-2,-1.012001187E-2,2.663161233E-2
1.363960647E0,-3.302319720E-2,-1.225054078E-2,2.982740477E-2
1.365278114E0,-1.651159860E-2,-2.822950855E-2,2.822950855E-2
1.368062108E0,-7.456851192E-3,-5.592638254E-2,3.249056637E-2
1.369625691E0,0.000000000E0,-6.125270575E-2,3.036003746E-2
1.372118147E0,1.331580617E-2,-6.870955974E-2,2.982740477E-2
1.373330576E0,2.769687586E-2,-5.965480953E-2,2.929477207E-2
1.376184378E0,4.101268202E-2,-4.367584363E-2,2.876213938E-2
1.377597345E0,5.273059011E-2,-2.876213938E-2,2.929477207E-2
1.380285147E0,5.965480953E-2,-1.012001187E-2,2.876213938E-2
1.381496576E0,5.805691332E-2,-1.065264456E-2,3.142530099E-2
1.384386724E0,4.261057824E-2,-2.663161140E-3,3.249056637E-2
1.385620845E0,9.587380104E-3,-1.331580617E-2,3.036003746E-2
1.388488993E0,-3.568635881E-2,-5.273059011E-2,2.716424316E-2
1.390105230E0,-5.273059011E-2,-7.510114461E-2,2.343581803E-2
1.392355845E0,-7.243798673E-2,-8.788431436E-2,2.822950855E-2
1.393795384E0,-8.575379103E-2,-8.575379103E-2,4.048004746E-2
1.396557037E0,-9.001484513E-2,-7.030745596E-2,5.432848632E-2
1.397857384E0,-7.936219871E-2,-5.486112088E-2,6.125270575E-2
1.400203807E0,-6.072007492E-2,-4.367584363E-2,6.072007492E-2
1.401934845E0,-4.048004746E-2,-3.888215125E-2,5.379585549E-2
1.404297422E0,-2.876213938E-2,-3.089267015E-2,4.261057824E-2
1.406037999E0,-2.024002373E-2,-2.663161233E-2,3.462109342E-2
1.408414768E0,-1.384843793E-2,-2.716424316E-2,2.609897964E-2
1.410371422E0,-7.989482954E-3,-3.302319720E-2,2.556634694E-2
1.412432922E0,5.326322280E-4,-3.728425503E-2,2.450108156E-2
1.414115576E0,5.858954508E-3,-4.048004746E-2,2.982740477E-2
1.416593960E0,7.989482954E-3,-3.515372798E-2,4.154531285E-2
1.418339191E0,5.326322280E-4,-2.130528912E-2,5.486112088E-2
1.420672422E0,-1.597896591E-2,-1.171790902E-2,6.604639441E-2
1.422449768E0,-3.302319720E-2,-1.597896591E-2,7.190535218E-2
1.424807884E0,-4.580637068E-2,-3.036003746E-2,6.604639441E-2
1.426443614E0,-5.592638254E-2,-4.580637068E-2,5.273059011E-2
1.428869268E0,-6.604639441E-2,-5.113269389E-2,4.048004746E-2
1.430748345E0,-7.669904083E-2,-4.048004746E-2,3.355583176E-2
1.432962845E0,-8.362326026E-2,-2.130528912E-2,3.781688958E-2
1.434586768E0,-7.882957160E-2,-3.728425596E-3,4.207794741E-2
1.437252845E0,-6.870955974E-2,2.663161140E-3,5.379585549E-2
1.438739768E0,-5.645901710E-2,0.000000000E0,6.231797114E-2
1.441529416E0,-5.060006306E-2,-6.924218964E-3,6.924218684E-2
1.442748230E0,-4.846953228E-2,-1.810949668E-2,7.190535218E-2
1.445630416E0,-5.273059011E-2,-3.036003746E-2,7.137271762E-2
1.446853422E0,-5.326322466E-2,-4.580637068E-2,6.977482140E-2
1.449731262E0,-3.728425503E-2,-6.338323653E-2,6.231797114E-2
1.451137576E0,-2.183792181E-2,-5.539375171E-2,6.178534031E-2
1.453779262E0,-6.924218964E-3,-3.515372798E-2,6.125270575E-2
1.454977230E0,7.989482954E-3,-8.522115648E-3,6.604639441E-2
1.457844723E0,2.024002373E-2,1.225054078E-2,6.657902896E-2
1.459087999E0,3.089267015E-2,2.130528912E-2,6.604639441E-2
1.461945070E0,3.142530099E-2,1.278317347E-2,6.285060197E-2
1.463191153E0,2.290318534E-2,-3.728425596E-3,5.965480953E-2
1.466045916E0,4.793690052E-3,-2.237055451E-2,5.699164793E-2
1.467370691E0,-1.597896591E-2,-3.462109342E-2,5.486112088E-2
1.470145916E0,-3.888215125E-2,-4.048004746E-2,5.752427876E-2
1.471597114E0,-5.592638254E-2,-3.834952042E-2,6.072007492E-2
1.473964653E0,-6.444849819E-2,-3.462109342E-2,6.444849819E-2
1.475452691E0,-6.924218684E-2,-2.450108156E-2,6.870955974E-2
1.478079691E0,-7.616640627E-2,-1.278317347E-2,6.977482140E-2
1.479482076E0,-8.042746782E-2,-5.326322280E-3,7.030745596E-2
1.481842576E0,-8.149272949E-2,-5.326322280E-3,6.604639441E-2
1.483556460E0,-7.882957160E-2,-1.438106969E-2,5.858954415E-2
1.485978114E0,-7.243798673E-2,-2.290318534E-2,5.379585549E-2
1.487820883E0,-6.924218684E-2,-3.036003746E-2,5.006742850E-2
1.490111999E0,-6.231797114E-2,-2.929477207E-2,5.273059011E-2
1.491945153E0,-5.752427876E-2,-1.970739290E-2,6.072007492E-2
1.494291422E0,-4.474110901E-2,-1.278317347E-2,6.604639441E-2
1.495812537E0,-3.408846259E-2,-9.587380104E-3,7.084008306E-2
1.498380153E0,-2.503371425E-2,-9.054748341E-3,7.084008306E-2
1.499999307E0,-2.024002373E-2,-1.438106969E-2,7.297061384E-2
1.502314807E0,-1.970739290E-2,-1.757686399E-2,7.190535218E-2
1.504024230E0,-1.970739290E-2,-2.609897964E-2,6.657902896E-2
1.506532268E0,-1.864212751E-2,-2.876213938E-2,6.231797114E-2
1.508634960E0,-1.225054078E-2,-2.982740477E-2,5.858954415E-2
1.510857730E0,-2.663161140E-3,-1.917476021E-2,5.699164793E-2
1.512478191E0,-3.195793368E-3,-3.195793368E-3,6.072007492E-2
1.514596807E0,-3.728425596E-3,9.054748341E-3,6.604639441E-2
1.516189883E0,-5.858954508E-3,1.970739290E-2,7.084008306E-2
1.518913191E0,-1.864212751E-2,1.491370238E-2,7.243798673E-2
1.520278268E0,-2.822950855E-2,2.130528912E-3,7.190535218E-2
1.523162531E0,-4.314320907E-2,-1.491370238E-2,6.924218684E-2
1.524487383E0,-5.539375171E-2,-2.769687586E-2,6.711166352E-2
1.527262685E0,-6.657902896E-2,-3.089267015E-2,6.924218684E-2
1.528479614E0,-6.870955974E-2,-2.663161233E-2,7.243798673E-2
1.531362877E0,-6.498113275E-2,-1.597896591E-2,7.723167539E-2
1.532757537E0,-5.486112088E-2,-3.195793368E-3,8.042746782E-2
1.535412223E0,-4.314320907E-2,6.924218964E-3,8.362326026E-2
1.536588653E0,-3.195793182E-2,1.757686399E-2,8.255799860E-2
1.539476800E0,-2.929477207E-2,2.183792181E-2,7.882957160E-2
1.540712806E0,-2.396845073E-2,1.810949668E-2,7.616640627E-2
1.543576877E0,-2.077265643E-2,7.989482954E-3,6.924218684E-2
1.544800653E0,-1.864212751E-2,1.065264456E-3,6.498113275E-2
1.547677608E0,-1.331580617E-2,-1.597896684E-3,6.551376730E-2
1.548909960E0,-1.171790902E-2,-2.130528912E-3,6.817692518E-2
1.551778223E0,-1.012001187E-2,1.065264456E-2,7.403588295E-2
1.553480422E0,-5.326322280E-3,1.917476021E-2,8.096009493E-2
1.555813306E0,-3.195793368E-3,2.237055451E-2,8.362326026E-2
1.557220499E0,-3.195793368E-3,2.450108156E-2,8.362326026E-2
1.559932531E0,-7.456851192E-3,1.704423130E-2,7.882957160E-2
1.561273845E0,-1.384843793E-2,1.065264456E-2,7.190535218E-2
1.563539230E0,-2.396845073E-2,8.522115648E-3,6.711166352E-2
1.565297845E0,-2.876213938E-2,7.989482954E-3,6.338323653E-2
1.567794037E0,-3.302319720E-2,6.391586736E-3,6.178534031E-2
1.569394806E0,-3.249056637E-2,5.326322280E-3,6.711166352E-2
1.571932306E0,-2.769687586E-2,4.261057824E-3,7.456851006E-2
1.573646499E0,-2.769687586E-2,1.225054078E-2,7.616640627E-2
1.575795537E0,-3.249056637E-2,2.237055451E-2,6.977482140E-2
1.577470230E0,-4.101268202E-2,2.982740477E-2,6.231797114E-2
1.579924499E0,-5.219795927E-2,2.982740477E-2,5.379585549E-2
1.581586691E0,-6.018744037E-2,2.503371425E-2,5.006742850E-2
1.584024883E0,-6.604639441E-2,7.456851192E-3,5.486112088E-2
1.585763037E0,-6.764429063E-2,-7.456851192E-3,6.018744037E-2
1.588216153E0,-6.338323653E-2,-1.438106969E-2,6.178534031E-2
1.589999153E0,-5.379585549E-2,-1.278317347E-2,6.498113275E-2
1.592223037E0,-4.420847446E-2,-1.065264456E-3,6.125270575E-2
1.594034422E0,-3.302319720E-2,1.704423130E-2,5.486112088E-2
1.596272537E0,-2.556634694E-2,3.089267015E-2,5.060006306E-2
1.597900306E0,-2.396845073E-2,4.154531285E-2,5.219795927E-2
1.600566614E0,-2.609897964E-2,4.154531285E-2,5.539375171E-2
1.601974306E0,-2.716424316E-2,2.716424316E-2,5.858954415E-2
1.604859569E0,-2.343581803E-2,3.728425596E-3,5.752427876E-2
1.606069460E0,-9.054748341E-3,-2.663161233E-2,4.900216311E-2
1.608961492E0,1.118527725E-2,-3.888215125E-2,4.687163606E-2
1.610176999E0,3.142530099E-2,-3.408846259E-2,4.793690145E-2
1.613063607E0,3.994741663E-2,-2.130528912E-3,5.326322466E-2
1.614505306E0,4.101268202E-2,3.888215125E-2,6.018744037E-2
1.617119184E0,3.195793182E-2,7.190535218E-2,6.285060197E-2
1.618312883E0,1.544633508E-2,8.096009493E-2,5.645901710E-2
1.621185877E0,-5.858954508E-3,6.498113275E-2,3.941478580E-2
1.622535768E0,-3.568635881E-2,3.515372798E-2,2.450108156E-2
1.625287877E0,-6.551376730E-2,2.663161140E-3,1.597896591E-2
1.626504153E0,-8.628641814E-2,-1.704423130E-2,1.491370238E-2
1.629389684E0,-9.747169912E-2,-2.396845073E-2,3.462109342E-2
1.630773153E0,-9.214537591E-2,-7.989482954E-3,5.326322466E-2
1.633491146E0,-8.255799860E-2,1.597896591E-2,6.977482140E-2
1.634960153E0,-7.190535218E-2,3.728425503E-2,7.297061384E-2
1.637336883E0,-6.231797114E-2,5.326322466E-2,6.604639441E-2
1.639100345E0,-5.592638254E-2,4.793690145E-2,4.687163606E-2
1.641412153E0,-4.900216311E-2,3.781688958E-2,2.183792181E-2
1.642951306E0,-3.888215125E-2,1.970739290E-2,6.391586736E-3
1.645223883E0,-2.822950855E-2,1.384843793E-2,3.728425596E-3
1.646967730E0,-1.384843793E-2,1.331580617E-2,1.651159860E-2
1.649329537E0,4.793690052E-3,2.343581803E-2,3.408846259E-2
1.651055229E0,2.503371425E-2,3.355583176E-2,5.273059011E-2
1.653427845E0,4.474110901E-2,3.834952042E-2,6.657902896E-2
1.655339999E0,5.699164793E-2,3.675162420E-2,6.764429063E-2
1.657495268E0,6.125270575E-2,3.195793182E-2,6.018744037E-2
1.659206614E0,5.379585549E-2,2.290318534E-2,4.846953228E-2
1.661635653E0,3.515372798E-2,1.438106969E-2,3.515372798E-2
1.663240883E0,2.130528912E-2,1.065264456E-2,2.556634694E-2
1.665627345E0,7.456851192E-3,1.065264456E-2,2.077265643E-2
1.667458076E0,-1.065264456E-3,1.651159860E-2,2.077265643E-2
1.669953153E0,-2.663161140E-3,2.077265643E-2,2.556634694E-2
1.671798883E0,-3.195793368E-3,3.089267015E-2,3.089267015E-2
1.673928076E0,-8.522115648E-3,3.568635881E-2,3.728425503E-2
1.675955306E0,-1.171790902E-2,3.568635881E-2,4.048004746E-2
1.677973729E0,-2.024002373E-2,2.716424316E-2,3.994741663E-2
1.679612537E0,-3.036003746E-2,1.651159860E-2,3.462109342E-2
1.682237845E0,-3.994741663E-2,3.195793368E-3,2.556634694E-2
1.684063614E0,-4.846953228E-2,0.000000000E0,1.704423130E-2
1.686531299E0,-4.953479767E-2,5.326322280E-4,9.587380104E-3
1.687788076E0,-4.633900523E-2,7.456851192E-3,6.391586736E-3
1.690632723E0,-2.876213938E-2,2.503371425E-2,1.012001187E-2
1.691837499E0,-1.491370238E-2,3.249056637E-2,1.757686399E-2
1.694734146E0,-5.326322280E-3,3.568635881E-2,2.237055451E-2
1.696144653E0,-5.326322280E-4,3.195793182E-2,2.503371425E-2
1.698783415E0,1.065264456E-3,1.970739290E-2,2.663161233E-2
1.700005114E0,-2.663161140E-3,3.195793368E-3,2.237055451E-2
1.702850299E0,-1.597896684E-3,-7.989482954E-3,1.704423130E-2
1.704224768E0,-3.728425596E-3,-1.225054078E-2,1.171790902E-2
1.706952684E0,-6.924218964E-3,-9.054748341E-3,1.118527725E-2
1.708209999E0,-3.728425596E-3,5.326322280E-3,1.651159860E-2
1.711054607E0,-1.597896684E-3,1.810949668E-2,2.503371425E-2
1.712291999E0,1.065264456E-3,2.183792181E-2,3.195793182E-2
1.715155992E0,5.858954508E-3,1.970739290E-2,3.568635881E-2
1.716519729E0,9.054748341E-3,1.012001187E-2,3.515372798E-2
1.718951345E0,1.118527725E-2,0.000000000E0,3.036003746E-2
1.720396460E0,8.522115648E-3,-8.522115648E-3,2.450108156E-2
1.723097576E0,7.989482954E-3,-6.924218964E-3,1.810949668E-2
1.724701306E0,6.924218964E-3,3.195793368E-3,1.597896591E-2
1.726924422E0,5.326322280E-4,1.757686399E-2,1.970739290E-2
1.728744229E0,-2.130528912E-3,3.036003746E-2,2.769687586E-2
1.730949960E0,-5.858954508E-3,3.462109342E-2,3.408846259E-2
1.732743691E0,-5.326322280E-3,2.769687586E-2,3.621899337E-2
1.735080729E0,-5.326322280E-4,1.331580617E-2,3.568635881E-2
1.737099114E0,4.261057824E-3,-3.195793368E-3,2.929477207E-2
1.739120114E0,1.331580617E-2,-9.587380104E-3,2.822950855E-2
1.740811883E0,1.597896591E-2,-4.261057824E-3,2.716424316E-2
1.743276691E0,1.757686399E-2,1.438106969E-2,2.769687586E-2
1.745013460E0,1.757686399E-2,3.515372798E-2,3.142530099E-2
1.747306037E0,1.278317347E-2,5.219795927E-2,3.089267015E-2
1.749134422E0,8.522115648E-3,5.805691332E-2,2.982740477E-2
1.751368653E0,-2.130528912E-3,4.101268202E-2,2.609897964E-2
1.753194999E0,-1.384843793E-2,2.822950855E-2,2.396845073E-2
1.755632152E0,-2.663161233E-2,1.065264456E-2,2.290318534E-2
1.757439383E0,-3.568635881E-2,-5.326322280E-4,2.716424316E-2
1.759732460E0,-3.621899337E-2,-2.663161140E-3,3.408846259E-2
1.761272383E0,-3.195793182E-2,4.261057824E-3,3.888215125E-2
1.764009460E0,-2.556634694E-2,2.130528912E-2,4.846953228E-2
1.765372576E0,-2.183792181E-2,3.408846259E-2,4.846953228E-2
1.768193876E0,-1.331580617E-2,4.527373984E-2,4.474110901E-2
1.769499691E0,-8.522115648E-3,4.633900523E-2,3.515372798E-2
1.772296607E0,-8.522115648E-3,4.207794741E-2,2.450108156E-2
1.773701114E0,-7.989482954E-3,3.568635881E-2,1.917476021E-2
1.776399799E0,-1.065264456E-2,2.876213938E-2,1.864212751E-2
1.777828422E0,-1.278317347E-2,2.290318534E-2,2.503371425E-2
1.780450568E0,-6.924218964E-3,1.757686399E-2,3.568635881E-2
1.781693652E0,2.663161140E-3,1.491370238E-2,4.474110901E-2
1.784518107E0,1.384843793E-2,1.864212751E-2,4.846953228E-2
1.785824691E0,2.450108156E-2,2.183792181E-2,5.219795927E-2
1.788620338E0,2.556634694E-2,3.195793182E-2,5.060006306E-2
1.789877268E0,2.822950855E-2,3.888215125E-2,4.527373984E-2
1.792722761E0,2.290318534E-2,4.367584363E-2,3.834952042E-2
1.793970883E0,1.757686399E-2,3.834952042E-2,3.036003746E-2
1.796825222E0,1.384843793E-2,3.195793182E-2,2.609897964E-2
1.798485691E0,1.118527725E-2,2.024002373E-2,2.503371425E-2
1.800749806E0,1.278317347E-2,2.024002373E-2,2.556634694E-2
1.802119460E0,1.810949668E-2,1.970739290E-2,2.822950855E-2
1.804817691E0,2.396845073E-2,1.917476021E-2,3.781688958E-2
1.806569460E0,2.769687586E-2,2.237055451E-2,4.314320907E-2
1.808582729E0,1.970739290E-2,3.408846259E-2,4.846953228E-2
1.810467576E0,7.989482954E-3,4.101268202E-2,4.687163606E-2
1.812688306E0,-1.225054078E-2,4.048004746E-2,3.728425503E-2
1.814541268E0,-2.663161233E-2,3.142530099E-2,2.663161233E-2
1.816813152E0,-3.834952042E-2,2.450108156E-2,1.171790902E-2
1.818732499E0,-4.793690145E-2,1.810949668E-2,5.326322280E-3
1.820908883E0,-5.273059011E-2,1.597896591E-2,6.924218964E-3
1.822573768E0,-5.166532472E-2,2.183792181E-2,1.597896591E-2
1.824964268E0,-4.900216311E-2,2.929477207E-2,2.609897964E-2
1.826644037E0,-4.048004746E-2,3.302319720E-2,3.568635881E-2
1.829013691E0,-3.621899337E-2,3.142530099E-2,3.941478580E-2
1.830696191E0,-3.089267015E-2,2.609897964E-2,3.462109342E-2
1.833094229E0,-3.568635881E-2,2.077265643E-2,2.822950855E-2
1.834871422E0,-3.621899337E-2,1.491370238E-2,1.970739290E-2
1.837259729E0,-3.568635881E-2,1.171790902E-2,1.171790902E-2
1.839204152E0,-3.036003746E-2,1.384843793E-2,4.261057824E-3
1.841335999E0,-2.183792181E-2,1.864212751E-2,4.793690052E-3
1.842944268E0,-7.989482954E-3,2.343581803E-2,7.456851192E-3
1.845616037E0,8.522115648E-3,2.929477207E-2,1.597896591E-2
1.847060614E0,2.183792181E-2,3.621899337E-2,2.077265643E-2
1.849919183E0,3.195793182E-2,3.462109342E-2,2.663161233E-2
1.851129614E0,3.355583176E-2,2.929477207E-2,2.450108156E-2
1.854021607E0,3.195793182E-2,1.864212751E-2,2.130528912E-2
1.855231576E0,2.450108156E-2,1.384843793E-2,1.171790902E-2
1.858123760E0,1.544633508E-2,1.065264456E-2,4.261057824E-3
1.859523883E0,4.793690052E-3,1.118527725E-2,5.326322280E-4
1.862179837E0,-6.391586736E-3,2.396845073E-2,-2.663161140E-3
1.863466037E0,-1.225054078E-2,3.249056637E-2,0.000000000E0
1.866247299E0,-1.491370238E-2,3.195793182E-2,4.793690052E-3
1.867566229E0,-1.544633508E-2,3.036003746E-2,9.587380104E-3
1.870349953E0,-1.810949668E-2,2.024002373E-2,1.438106969E-2
1.871577614E0,-2.024002373E-2,1.225054078E-2,1.012001187E-2
1.874452299E0,-2.183792181E-2,1.012001187E-2,6.924218964E-3
1.875839075E0,-2.343581803E-2,9.587380104E-3,2.130528912E-3
1.878554606E0,-1.970739290E-2,1.491370238E-2,-2.130528912E-3
1.880047229E0,-1.384843793E-2,1.970739290E-2,-2.130528912E-3
1.882428691E0,-8.522115648E-3,3.036003746E-2,5.326322280E-4
1.883791268E0,-5.858954508E-3,4.101268202E-2,7.456851192E-3
1.886439691E0,-2.130528912E-3,4.048004746E-2,8.522115648E-3
1.887901806E0,0.000000000E0,3.462109342E-2,1.491370238E-2
1.890346883E0,1.597896684E-3,2.396845073E-2,1.171790902E-2
1.891997114E0,4.261057824E-3,1.171790902E-2,1.065264456E-2
1.894535729E0,-5.326322280E-4,6.924218964E-3,1.171790902E-2
1.896161499E0,-4.261057824E-3,9.587380104E-3,1.171790902E-2
1.898482999E0,-7.989482954E-3,1.597896591E-2,1.225054078E-2
1.900368152E0,-7.989482954E-3,2.237055451E-2,1.225054078E-2
1.902530499E0,-4.793690052E-3,2.769687586E-2,9.587380104E-3
1.904206268E0,-2.663161140E-3,3.249056637E-2,1.118527725E-2
1.906758345E0,-3.195793368E-3,3.462109342E-2,1.065264456E-2
1.908359845E0,-3.195793368E-3,3.515372798E-2,1.171790902E-2
1.910693460E0,-5.326322280E-3,3.249056637E-2,1.065264456E-2
1.912384191E0,-5.858954508E-3,2.609897964E-2,1.012001187E-2
1.914755883E0,-8.522115648E-3,1.810949668E-2,8.522115648E-3
1.916508422E0,-1.065264456E-3,1.864212751E-2,1.012001187E-2
1.918955499E0,-1.065264456E-3,2.343581803E-2,1.278317347E-2
1.920802575E0,-2.130528912E-3,2.929477207E-2,1.651159860E-2
1.922992729E0,-5.326322280E-4,3.568635881E-2,1.651159860E-2
1.924619922E0,4.793690052E-3,3.834952042E-2,1.810949668E-2
1.927309768E0,4.261057824E-3,3.355583176E-2,1.544633508E-2
1.928799229E0,5.858954508E-3,3.089267015E-2,1.384843793E-2
1.931602722E0,4.261057824E-3,2.929477207E-2,1.225054078E-2
1.932814075E0,1.597896684E-3,2.769687586E-2,1.118527725E-2
1.935704491E0,0.000000000E0,3.302319720E-2,1.278317347E-2
1.936922806E0,1.065264456E-3,3.515372798E-2,1.544633508E-2
1.939806529E0,0.000000000E0,3.728425503E-2,1.757686399E-2
1.941257152E0,-4.261057824E-3,4.314320907E-2,1.970739290E-2
1.943856837E0,-1.225054078E-2,4.687163606E-2,1.970739290E-2
1.945036614E0,-1.810949668E-2,4.474110901E-2,1.970739290E-2
1.947923760E0,-2.556634694E-2,3.941478580E-2,1.864212751E-2
1.949138652E0,-2.716424316E-2,3.089267015E-2,1.331580617E-2
1.952025568E0,-2.769687586E-2,2.822950855E-2,1.118527725E-2
1.953252422E0,-2.450108156E-2,2.716424316E-2,1.384843793E-2
1.956127260E0,-2.130528912E-2,3.834952042E-2,1.491370238E-2
1.957360537E0,-1.651159860E-2,4.580637068E-2,2.024002373E-2
1.960228452E0,-1.065264456E-2,5.166532472E-2,2.450108156E-2
1.961585499E0,-5.858954508E-3,5.486112088E-2,2.929477207E-2
1.964035037E0,-2.663161140E-3,5.486112088E-2,2.663161233E-2
1.965482575E0,-4.261057824E-3,5.006742850E-2,2.663161233E-2
1.968144229E0,-1.065264456E-2,4.633900523E-2,2.503371425E-2
1.969594422E0,-1.384843793E-2,4.101268202E-2,2.450108156E-2
1.971994422E0,-1.597896591E-2,3.941478580E-2,2.343581803E-2
1.973719806E0,-1.491370238E-2,3.621899337E-2,2.450108156E-2
1.976129960E0,-1.012001187E-2,3.994741663E-2,2.663161233E-2
1.977855652E0,-5.326322280E-3,4.687163606E-2,3.142530099E-2
1.980342922E0,-5.326322280E-4,5.592638254E-2,3.408846259E-2
1.982108806E0,3.728425596E-3,6.338323653E-2,3.728425503E-2
1.984299729E0,5.858954508E-3,6.391586363E-2,3.834952042E-2
1.985968075E0,4.793690052E-3,6.178534031E-2,3.568635881E-2
1.988353191E0,1.597896684E-3,5.060006306E-2,3.302319720E-2
1.990087998E0,-3.195793368E-3,4.687163606E-2,3.195793182E-2
1.992347691E0,-8.522115648E-3,5.113269389E-2,3.142530099E-2
1.994082883E0,-1.225054078E-2,5.273059011E-2,3.302319720E-2
1.996497152E0,-1.544633508E-2,5.858954415E-2,3.568635881E-2
1.998174691E0,-1.331580617E-2,6.125270575E-2,3.834952042E-2
2.000672883E0,-1.225054078E-2,6.498113275E-2,4.207794741E-2
2.002570460E0,-1.491370238E-2,6.338323653E-2,4.367584363E-2
2.004697691E0,-1.864212751E-2,6.338323653E-2,4.207794741E-2
2.006479422E0,-2.663161233E-2,6.178534031E-2,3.994741663E-2
2.009036268E0,-2.982740477E-2,5.645901710E-2,3.781688958E-2
2.010451383E0,-3.195793182E-2,5.379585549E-2,3.195793182E-2
2.013268606E0,-3.515372798E-2,5.379585549E-2,3.249056637E-2
2.014610383E0,-3.462109342E-2,5.965480953E-2,3.195793182E-2
2.017370567E0,-3.408846259E-2,6.711166352E-2,3.355583176E-2
2.018612922E0,-2.982740477E-2,7.403588295E-2,3.675162420E-2
2.021471337E0,-2.716424316E-2,7.190535218E-2,4.101268202E-2
2.022920152E0,-2.290318534E-2,6.924218684E-2,4.101268202E-2
2.025520529E0,-1.810949668E-2,6.338323653E-2,4.101268202E-2
2.026696883E0,-1.651159860E-2,5.752427876E-2,4.048004746E-2
2.029586567E0,-1.225054078E-2,5.379585549E-2,4.048004746E-2
2.030809806E0,-1.065264456E-2,5.592638254E-2,4.101268202E-2
2.033687683E0,-4.793690052E-3,5.965480953E-2,4.048004746E-2
2.034905575E0,5.326322280E-4,6.285060197E-2,4.101268202E-2
2.037788837E0,6.391586736E-3,7.030745596E-2,4.154531285E-2
2.039057152E0,1.012001187E-2,7.456851006E-2,4.154531285E-2
2.041890337E0,8.522115648E-3,7.882957160E-2,4.261057824E-2
2.043497960E0,3.728425596E-3,7.723167539E-2,4.048004746E-2
2.045706614E0,-1.065264456E-3,6.870955974E-2,4.154531285E-2
2.047172345E0,-7.456851192E-3,6.285060197E-2,4.207794741E-2
2.049834960E0,-1.597896591E-2,5.805691332E-2,4.367584363E-2
2.051349960E0,-2.290318534E-2,5.912217870E-2,4.474110901E-2
2.053827768E0,-2.663161233E-2,6.338323653E-2,4.527373984E-2
2.055386383E0,-2.929477207E-2,6.870955974E-2,4.740426689E-2
2.057749191E0,-2.982740477E-2,7.350324839E-2,4.846953228E-2
2.059534614E0,-2.822950855E-2,7.829693705E-2,4.740426689E-2
2.061878537E0,-2.609897964E-2,7.829693705E-2,4.846953228E-2
2.063814306E0,-2.982740477E-2,7.723167539E-2,5.060006306E-2
2.065885114E0,-2.663161233E-2,7.403588295E-2,4.900216311E-2
2.067581537E0,-2.716424316E-2,6.870955974E-2,4.793690145E-2
2.070004960E0,-2.396845073E-2,6.444849819E-2,4.953479767E-2
2.071620345E0,-2.290318534E-2,6.338323653E-2,4.900216311E-2
2.074010768E0,-1.757686399E-2,6.924218684E-2,4.900216311E-2
2.075949498E0,-1.384843793E-2,7.350324839E-2,5.060006306E-2
2.078102037E0,-1.704423130E-2,8.149272949E-2,5.379585549E-2
2.080032845E0,-1.597896591E-2,8.096009493E-2,5.539375171E-2
2.082246498E0,-1.438106969E-2,8.468852192E-2,5.113269389E-2
2.084259114E0,-1.544633508E-2,8.309062570E-2,4.793690145E-2
2.086307575E0,-1.810949668E-2,7.723167539E-2,4.793690145E-2
2.087944998E0,-2.237055451E-2,7.616640627E-2,4.527373984E-2
2.090627768E0,-2.290318534E-2,7.669904083E-2,4.527373984E-2
2.092119306E0,-2.503371425E-2,7.669904083E-2,4.687163606E-2
2.094904836E0,-2.663161233E-2,7.829693705E-2,5.006742850E-2
2.096115383E0,-2.450108156E-2,8.149272949E-2,5.219795927E-2
2.099005952E0,-2.716424316E-2,8.255799860E-2,5.060006306E-2
2.100236845E0,-3.195793182E-2,8.468852192E-2,5.113269389E-2
2.103107336E0,-3.515372798E-2,7.882957160E-2,5.006742850E-2
2.104556921E0,-3.781688958E-2,7.882957160E-2,4.633900523E-2
2.107162490E0,-3.888215125E-2,7.776430249E-2,4.314320907E-2
2.108455191E0,-3.728425503E-2,7.882957160E-2,3.888215125E-2
2.111228952E0,-3.621899337E-2,7.297061384E-2,4.633900523E-2
2.112566768E0,-3.036003746E-2,8.255799860E-2,4.900216311E-2
2.115330413E0,-2.876213938E-2,9.427590668E-2,5.166532472E-2
2.116558845E0,-2.343581803E-2,8.894958347E-2,5.805691332E-2
2.119431644E0,-2.396845073E-2,7.669904083E-2,6.498113275E-2
2.120873345E0,-1.704423130E-2,9.321063757E-2,5.219795927E-2
2.123532644E0,-1.544633508E-2,7.350324839E-2,5.166532472E-2
2.125008921E0,-1.810949668E-2,6.711166352E-2,5.113269389E-2
2.127327075E0,-2.556634694E-2,9.161274135E-2,4.048004746E-2
2.128764537E0,-2.237055451E-2,9.427590668E-2,4.207794741E-2
2.131435691E0,-1.917476021E-2,8.149272949E-2,5.060006306E-2
2.132986229E0,-1.704423130E-2,9.108011425E-2,5.113269389E-2
2.135225114E0,-1.544633508E-2,1.017327532E-1,5.113269389E-2
2.137012691E0,-1.810949668E-2,8.894958347E-2,6.178534031E-2
2.139353191E0,-1.917476021E-2,8.415589482E-2,6.178534031E-2
2.141064114E0,-2.183792181E-2,8.628641814E-2,5.805691332E-2
2.143479306E0,-2.769687586E-2,8.309062570E-2,5.432848632E-2
2.145357729E0,-3.036003746E-2,7.243798673E-2,5.486112088E-2
2.147527614E0,-3.142530099E-2,6.924218684E-2,5.379585549E-2
2.149185652E0,-3.142530099E-2,8.309062570E-2,4.900216311E-2
2.151634806E0,-3.408846259E-2,8.948221803E-2,5.379585549E-2
2.153306421E0,-3.408846259E-2,9.214537591E-2,5.752427876E-2
2.155736460E0,-2.929477207E-2,9.534116834E-2,5.752427876E-2
2.157383614E0,-2.290318534E-2,8.894958347E-2,5.699164793E-2
2.159760191E0,-2.290318534E-2,8.362326026E-2,5.805691332E-2
2.161621306E0,-2.769687586E-2,8.042746782E-2,5.752427876E-2
2.163893075E0,-2.982740477E-2,8.042746782E-2,5.858954415E-2
2.165802652E0,-3.089267015E-2,7.829693705E-2,5.645901710E-2
2.168010460E0,-2.769687586E-2,7.669904083E-2,5.539375171E-2
2.169963614E0,-2.450108156E-2,7.936219871E-2,5.432848632E-2
2.172398345E0,-1.384843793E-2,8.309062570E-2,5.166532472E-2
2.173799845E0,-5.858954508E-3,8.149272949E-2,5.219795927E-2
2.176580721E0,-3.195793368E-3,8.681905270E-2,5.379585549E-2
2.177953691E0,0.000000000E0,8.841694891E-2,5.486112088E-2
2.180680605E0,-3.195793368E-3,8.681905270E-2,5.592638254E-2
2.182031229E0,-2.130528912E-3,7.936219871E-2,5.858954415E-2
2.184780836E0,-2.130528912E-3,7.030745596E-2,5.539375171E-2
2.186178383E0,-2.663161140E-3,6.338323653E-2,5.379585549E-2
2.188829490E0,-3.195793368E-3,6.391586363E-2,5.166532472E-2
2.190025344E0,-5.326322280E-3,6.498113275E-2,4.953479767E-2
2.192895144E0,-6.391586736E-3,6.817692518E-2,5.219795927E-2
2.194148498E0,-7.989482954E-3,7.563377917E-2,5.326322466E-2
2.196996028E0,-1.225054078E-2,8.255799860E-2,5.699164793E-2
2.198221691E0,-2.077265643E-2,8.681905270E-2,5.858954415E-2
2.201096874E0,-2.822950855E-2,8.575379103E-2,5.805691332E-2
2.202351344E0,-4.420847446E-2,8.788431436E-2,5.219795927E-2
2.205197182E0,-5.645901710E-2,8.096009493E-2,4.846953228E-2
2.206673037E0,-7.030745596E-2,7.030745596E-2,4.793690145E-2
2.209175306E0,-7.829693705E-2,6.072007492E-2,4.261057824E-2
2.210519498E0,-8.096009493E-2,4.900216311E-2,3.781688958E-2
2.213297336E0,-7.936219871E-2,4.048004746E-2,3.302319720E-2
2.214667344E0,-6.817692518E-2,4.101268202E-2,2.716424316E-2
2.216886998E0,-5.486112088E-2,4.633900523E-2,2.503371425E-2
2.218790152E0,-3.834952042E-2,5.805691332E-2,2.876213938E-2
2.221030652E0,-1.118527725E-2,6.551376730E-2,3.408846259E-2
2.222759729E0,1.331580617E-2,7.510114461E-2,3.728425503E-2
2.225148921E0,3.568635881E-2,7.829693705E-2,4.101268202E-2
2.227040268E0,5.166532472E-2,7.190535218E-2,4.580637068E-2
2.229180344E0,5.113269389E-2,6.551376730E-2,4.314320907E-2
2.230989729E0,4.687163606E-2,5.060006306E-2,3.728425503E-2
2.233374306E0,3.728425503E-2,3.568635881E-2,3.355583176E-2
2.235141152E0,3.089267015E-2,2.130528912E-2,3.036003746E-2
2.237361614E0,2.077265643E-2,1.970739290E-2,2.609897964E-2
2.239097921E0,5.858954508E-3,3.408846259E-2,2.077265643E-2
2.241577037E0,-1.597896684E-3,3.036003746E-2,2.343581803E-2
2.243337498E0,-9.054748341E-3,4.793690145E-2,1.864212751E-2
2.245593844E0,-1.864212751E-2,5.060006306E-2,1.651159860E-2
2.247492806E0,-2.396845073E-2,3.408846259E-2,1.810949668E-2
2.249735614E0,-3.728425503E-2,2.876213938E-2,1.331580617E-2
2.251280960E0,-4.740426689E-2,1.651159860E-2,1.065264456E-2
2.254007075E0,-5.432848632E-2,2.663161140E-3,7.989482954E-3
2.255374806E0,-5.752427876E-2,-4.261057824E-3,2.663161140E-3
2.258218759E0,-5.379585549E-2,-9.054748341E-3,1.065264456E-3
2.259469421E0,-3.888215125E-2,-1.065264456E-2,1.065264456E-3
2.262318413E0,-2.396845073E-2,-8.522115648E-3,3.195793368E-3
2.263793998E0,-9.587380104E-3,-5.326322280E-4,3.195793368E-3
2.266418143E0,3.728425596E-3,1.012001187E-2,1.597896684E-3
2.267874691E0,1.278317347E-2,8.522115648E-3,-5.326322280E-3
2.270467066E0,2.290318534E-2,1.065264456E-3,-1.278317347E-2
2.271850344E0,2.876213938E-2,-1.065264456E-2,-2.343581803E-2
2.274533066E0,3.568635881E-2,-2.343581803E-2,-3.036003746E-2
2.275871844E0,3.515372798E-2,-2.503371425E-2,-3.195793182E-2
2.278634182E0,3.515372798E-2,-2.077265643E-2,-2.822950855E-2
2.280090998E0,3.036003746E-2,-1.331580617E-2,-2.077265643E-2
2.282734451E0,2.556634694E-2,-7.456851192E-3,-1.384843793E-2
2.284082537E0,2.130528912E-2,-1.544633508E-2,-7.989482954E-3
2.286834797E0,1.917476021E-2,-2.290318534E-2,-8.522115648E-3
2.288592152E0,1.171790902E-2,-3.515372798E-2,-1.278317347E-2
2.290738729E0,3.195793368E-3,-4.474110901E-2,-1.438106969E-2
2.292290191E0,-4.793690052E-3,-4.793690145E-2,-2.343581803E-2
2.294938037E0,-6.924218964E-3,-5.805691332E-2,-3.728425503E-2
2.296351767E0,-8.522115648E-3,-6.391586363E-2,-4.953479767E-2
2.298686306E0,-4.793690052E-3,-6.018744037E-2,-5.166532472E-2
2.300371306E0,-5.858954508E-3,-5.432848632E-2,-5.326322466E-2
2.302797883E0,-1.065264456E-3,-4.154531285E-2,-4.953479767E-2
2.304495191E0,5.858954508E-3,-3.408846259E-2,-4.633900523E-2
2.306909537E0,1.171790902E-2,-3.462109342E-2,-3.941478580E-2
2.308823229E0,1.118527725E-2,-3.888215125E-2,-3.621899337E-2
2.310897767E0,5.326322280E-3,-4.580637068E-2,-3.302319720E-2
2.312563537E0,2.663161140E-3,-5.805691332E-2,-3.515372798E-2
2.315009575E0,5.326322280E-4,-7.190535218E-2,-3.834952042E-2
2.316759114E0,0.000000000E0,-9.480853379E-2,-4.687163606E-2
2.319042767E0,3.781688958E-2,-9.161274135E-2,-5.006742850E-2
2.320908075E0,1.001348570E-1,-5.060006306E-2,-4.687163606E-2
2.323531691E0,1.470064968E-1,-1.438106969E-2,-4.580637068E-2
2.324923421E0,1.603222936E-1,-2.183792181E-2,-4.953479767E-2
2.327384191E0,1.565938741E-1,-4.953479767E-2,-6.285060197E-2
2.329157921E0,1.294296384E-1,-8.735168725E-2,-7.989483327E-2
2.331477806E0,8.735168725E-2,-1.161138266E-1,-8.522115648E-2
2.333003806E0,4.207794741E-2,-1.336906850E-1,-7.829693705E-2
2.335751614E0,1.278317347E-2,-1.230380461E-1,-6.338323653E-2
2.337058344E0,-1.597896684E-3,-9.480853379E-2,-4.633900523E-2
2.339904605E0,-1.225054078E-2,-6.125270575E-2,-2.822950855E-2
2.341179767E0,-2.556634694E-2,-1.331580617E-2,-1.438106969E-2
2.344004451E0,-4.527373984E-2,1.331580617E-2,-9.587380104E-3
2.345241152E0,-6.764429063E-2,1.704423130E-2,-1.384843793E-2
2.348103758E0,-9.906959534E-2,-2.556634694E-2,-3.462109342E-2
2.349581575E0,-1.166464612E-1,-5.379585549E-2,-5.006742850E-2
2.352152797E0,-1.246359423E-1,-6.444849819E-2,-5.965480953E-2
2.353421191E0,-1.225054115E-1,-6.285060197E-2,-5.592638254E-2
2.356218028E0,-1.118527651E-1,-3.142530099E-2,-4.687163606E-2
2.357594152E0,-6.178534031E-2,-1.118527725E-2,-4.207794741E-2
2.360318489E0,3.728425596E-3,-2.450108156E-2,-3.089267015E-2
2.361735421E0,4.633900523E-2,-3.195793368E-3,-1.810949668E-2
2.364419374E0,5.858954415E-2,1.704423130E-2,7.456851192E-3
2.365653383E0,3.462109342E-2,4.527373984E-2,2.929477207E-2
2.368520297E0,1.081243455E-1,4.633900523E-2,3.142530099E-2
2.370056383E0,1.965412945E-1,3.941478580E-2,9.054748341E-3
2.372392191E0,2.071939409E-1,-3.249056637E-2,2.130528912E-2
2.373763729E0,1.693770438E-1,-1.757686399E-2,1.970739290E-2
2.376410691E0,1.225054115E-1,4.101268202E-2,-4.261057824E-3
2.377851691E0,7.936219871E-2,2.982740477E-2,-1.331580617E-2
2.380232498E0,4.420847446E-2,-7.456851192E-3,-1.917476021E-2
2.381973844E0,2.716424316E-2,-4.633900523E-2,-2.396845073E-2
2.384395883E0,1.438106969E-2,-5.113269389E-2,-2.822950855E-2
2.386199267E0,-1.810949668E-2,-1.597896591E-2,-1.704423130E-2
2.388532075E0,-7.190535218E-2,1.704423130E-2,1.171790902E-2
2.390369691E0,-1.086569726E-1,3.994741663E-2,2.077265643E-2
2.392493114E0,-1.214401498E-1,3.089267015E-2,9.054748341E-3
2.394165652E0,-1.161138266E-1,-2.077265643E-2,-4.261057824E-3
2.396745306E0,-1.187769845E-1,-7.030745596E-2,-1.118527725E-2
2.398311114E0,-1.331580579E-1,-6.870955974E-2,-7.989482954E-3
2.400732960E0,-1.475391239E-1,-3.994741663E-2,-5.326322280E-3
2.402432306E0,-1.432780623E-1,-7.989482954E-3,-3.728425596E-3
2.405009383E0,-1.065264493E-1,-9.587380104E-3,-7.456851192E-3
2.406556152E0,-4.633900523E-2,-3.089267015E-2,-1.225054078E-2
2.408964229E0,2.769687586E-2,-3.355583176E-2,-3.195793368E-3
2.410730575E0,3.408846259E-2,-2.130528912E-3,2.077265643E-2
2.412951614E0,2.982740477E-2,2.663161233E-2,4.261057824E-2
2.414601767E0,3.781688958E-2,2.396845073E-2,4.633900523E-2
2.417344460E0,6.338323653E-2,-4.261057824E-3,3.408846259E-2
2.418740229E0,7.989483327E-2,-3.781688958E-2,2.130528912E-2
2.421561950E0,7.297061384E-2,-4.740426689E-2,1.970739290E-2
2.422804498E0,5.539375171E-2,-3.195793182E-2,2.663161233E-2
2.425665027E0,4.527373984E-2,-1.651159860E-2,3.195793182E-2
2.426912037E0,4.740426689E-2,-1.810949668E-2,3.249056637E-2
2.429768720E0,5.113269389E-2,-3.089267015E-2,3.462109342E-2
2.431156575E0,5.113269389E-2,-4.367584363E-2,3.408846259E-2
2.433819412E0,4.420847446E-2,-4.793690145E-2,3.994741663E-2
2.434988806E0,3.462109342E-2,-4.740426689E-2,4.900216311E-2
2.437887258E0,2.822950855E-2,-4.474110901E-2,5.273059011E-2
2.439120767E0,2.290318534E-2,-4.740426689E-2,4.687163606E-2
2.441990297E0,2.450108156E-2,-4.580637068E-2,3.408846259E-2
2.443195460E0,1.970739290E-2,-3.834952042E-2,1.757686399E-2
2.446091498E0,4.261057824E-3,-2.237055451E-2,7.989482954E-3
2.447305806E0,-1.012001187E-2,-3.728425596E-3,8.522115648E-3
2.450195950E0,-2.343581803E-2,7.989482954E-3,9.054748341E-3
2.451692267E0,-1.970739290E-2,3.728425596E-3,7.456851192E-3
2.454098806E0,-1.331580617E-2,-1.225054078E-2,9.587380104E-3
2.455415806E0,-1.225054078E-2,-2.396845073E-2,1.810949668E-2
2.458097921E0,-1.544633508E-2,-2.769687586E-2,2.716424316E-2
2.459557152E0,-2.556634694E-2,-2.396845073E-2,3.675162420E-2
2.461965614E0,-3.355583176E-2,-2.929477207E-2,4.101268202E-2
2.463713460E0,-3.675162420E-2,-3.728425503E-2,3.462109342E-2
2.466107614E0,-3.089267015E-2,-4.154531285E-2,2.290318534E-2
2.467758729E0,-2.929477207E-2,-2.769687586E-2,9.054748341E-3
2.470128229E0,-2.982740477E-2,-1.438106969E-2,7.989482954E-3
2.472008460E0,-2.343581803E-2,-6.391586736E-3,4.793690052E-3
2.474125190E0,-7.456851192E-3,-9.054748341E-3,3.728425596E-3
2.475826460E0,6.924218964E-3,-1.384843793E-2,4.793690052E-3
2.478287844E0,1.544633508E-2,-1.651159860E-2,5.858954508E-3
2.480022037E0,1.491370238E-2,-1.651159860E-2,1.065264456E-2
2.482314806E0,7.989482954E-3,-1.757686399E-2,1.278317347E-2
2.484050614E0,0.000000000E0,-2.130528912E-2,1.118527725E-2
2.486424729E0,-6.924218964E-3,-3.036003746E-2,9.054748341E-3
2.488160575E0,-1.438106969E-2,-3.515372798E-2,3.728425596E-3
2.490556960E0,-1.810949668E-2,-3.515372798E-2,-4.261057824E-3
2.492445767E0,-2.237055451E-2,-2.077265643E-2,-3.728425596E-3
2.494665844E0,-3.568635881E-2,-1.171790902E-2,4.261057824E-3
2.496250075E0,-3.462109342E-2,-5.858954508E-3,7.989482954E-3
2.498955190E0,-2.822950855E-2,-1.225054078E-2,7.989482954E-3
2.500352037E0,-1.597896591E-2,-2.130528912E-2,5.858954508E-3
2.503238989E0,-9.054748341E-3,-3.142530099E-2,3.728425596E-3
2.504451767E0,-9.054748341E-3,-2.290318534E-2,4.793690052E-3
2.507340835E0,-6.924218964E-3,-1.012001187E-2,7.989482954E-3
2.508526729E0,-9.054748341E-3,-8.522115648E-3,7.989482954E-3
2.511442989E0,-3.728425596E-3,-9.054748341E-3,7.989482954E-3
2.512804306E0,-1.065264456E-3,-1.278317347E-2,3.728425596E-3
2.515494412E0,-4.261057824E-3,-1.438106969E-2,3.195793368E-3
2.516713421E0,-1.065264456E-2,-7.456851192E-3,2.130528912E-3
2.519555421E0,-1.544633508E-2,-2.663161140E-3,1.597896684E-3
2.520762421E0,-1.970739290E-2,-5.858954508E-3,3.195793368E-3
2.523663758E0,-1.864212751E-2,-1.438106969E-2,6.924218964E-3
2.524844537E0,-2.503371425E-2,4.261057824E-3,1.278317347E-2
2.527754921E0,-3.621899337E-2,4.793690052E-3,2.290318534E-2
2.528952960E0,-3.515372798E-2,-1.012001187E-2,1.384843793E-2
2.531868758E0,-3.036003746E-2,-2.822950855E-2,-2.130528912E-3
2.533582921E0,-3.089267015E-2,-3.941478580E-2,-1.171790902E-2
2.535741190E0,-3.142530099E-2,-3.515372798E-2,-9.587380104E-3
2.537186498E0,-2.290318534E-2,-2.396845073E-2,-5.326322280E-3
2.539868883E0,-2.663161140E-3,-1.278317347E-2,-1.597896684E-3
2.541287844E0,1.810949668E-2,-6.924218964E-3,4.261057824E-3
2.543586998E0,3.515372798E-2,1.065264456E-3,1.012001187E-2
2.545315037E0,4.101268202E-2,8.522115648E-3,1.384843793E-2
2.547793844E0,4.261057824E-2,1.118527725E-2,1.171790902E-2
2.549534613E0,4.474110901E-2,-4.793690052E-3,9.054748341E-3
2.551868767E0,4.420847446E-2,-1.917476021E-2,3.728425596E-3
2.553693460E0,4.101268202E-2,-3.089267015E-2,-5.326322280E-4
2.555816729E0,3.675162420E-2,-3.302319720E-2,1.597896684E-3
2.557536806E0,2.876213938E-2,-2.130528912E-2,3.728425596E-3
2.560022113E0,2.130528912E-2,-1.012001187E-2,9.054748341E-3
2.561651844E0,1.864212751E-2,5.326322280E-4,9.587380104E-3
2.564026306E0,1.917476021E-2,-2.663161140E-3,6.924218964E-3
2.565804190E0,1.171790902E-2,-6.391586736E-3,4.793690052E-3
2.568237383E0,4.793690052E-3,-9.054748341E-3,4.793690052E-3
2.569958460E0,-8.522115648E-3,-1.331580617E-2,4.793690052E-3
2.572269613E0,-1.544633508E-2,-1.704423130E-2,6.924218964E-3
2.574122267E0,-1.757686399E-2,-2.183792181E-2,7.456851192E-3
2.576340190E0,-1.225054078E-2,-2.450108156E-2,6.924218964E-3
2.577952883E0,-4.261057824E-3,-2.237055451E-2,8.522115648E-3
2.580670652E0,4.261057824E-3,-1.491370238E-2,9.054748341E-3
2.582069537E0,1.065264456E-2,-6.391586736E-3,1.225054078E-2
2.584949258E0,1.810949668E-2,5.858954508E-3,1.384843793E-2
2.586247998E0,2.663161233E-2,9.054748341E-3,1.118527725E-2
2.589045575E0,3.089267015E-2,8.522115648E-3,8.522115648E-3
2.590233921E0,2.663161233E-2,7.989482954E-3,3.728425596E-3
2.593151565E0,2.237055451E-2,5.858954508E-3,2.130528912E-3
2.594512306E0,1.864212751E-2,2.130528912E-3,2.663161140E-3
2.597206604E0,1.331580617E-2,-4.261057824E-3,3.195793368E-3
2.598367344E0,1.065264456E-2,-6.391586736E-3,4.261057824E-3
2.601272488E0,5.326322280E-3,-9.587380104E-3,7.456851192E-3
2.602563113E0,1.065264456E-3,-6.924218964E-3,7.989482954E-3
2.605373873E0,-1.597896684E-3,-3.195793368E-3,6.924218964E-3
2.606567767E0,-6.924218964E-3,1.597896684E-3,5.858954508E-3
2.609476027E0,-1.438106969E-2,4.793690052E-3,3.195793368E-3
2.610668498E0,-4.793690052E-3,-6.391586736E-3,0.000000000E0
2.613578104E0,-2.769687586E-2,1.970739290E-2,-2.663161140E-3
2.614949883E0,-1.331580617E-2,-7.989482954E-3,-1.597896684E-3
2.617452652E0,-1.704423130E-2,1.065264456E-2,-6.391586736E-3
2.618820190E0,-3.621899337E-2,1.810949668E-2,0.000000000E0
2.621534498E0,-1.171790902E-2,-1.065264456E-2,2.663161140E-3
2.622899998E0,-3.994741663E-2,2.769687586E-2,-1.597896684E-3
2.625289421E0,-1.331580617E-2,-1.917476021E-2,4.261057824E-3
2.626977460E0,-2.503371425E-2,5.858954508E-3,-1.065264456E-3
2.629332575E0,-1.864212751E-2,-2.130528912E-3,2.130528912E-3
2.631126652E0,-7.456851192E-3,-1.438106969E-2,3.728425596E-3
2.633564998E0,-1.810949668E-2,1.384843793E-2,-2.663161140E-3
2.635477767E0,8.522115648E-3,-1.438106969E-2,1.597896684E-3
2.637591267E0,-6.391586736E-3,1.118527725E-2,-2.130528912E-3
2.639326844E0,1.171790902E-2,-1.065264456E-3,-3.728425596E-3
2.641679229E0,1.544633508E-2,3.195793368E-3,-2.663161140E-3
2.643319960E0,1.384843793E-2,1.225054078E-2,-4.793690052E-3
2.645698306E0,1.917476021E-2,9.054748341E-3,-4.261057824E-3
2.647429652E0,2.396845073E-2,2.663161140E-3,-6.924218964E-3
2.649827152E0,2.769687586E-2,-3.195793368E-3,-6.924218964E-3
2.651593190E0,1.544633508E-2,4.261057824E-3,-5.858954508E-3
2.653993383E0,2.450108156E-2,-3.728425596E-3,-6.924218964E-3
2.655907036E0,1.491370238E-2,4.793690052E-3,-6.391586736E-3
2.658041306E0,1.757686399E-2,-2.663161140E-3,-8.522115648E-3
2.659627767E0,1.171790902E-2,4.261057824E-3,-9.054748341E-3
2.662305690E0,1.278317347E-2,3.195793368E-3,-1.118527725E-2
2.663796729E0,1.278317347E-2,5.326322280E-4,-1.225054078E-2
2.666629180E0,4.793690052E-3,5.858954508E-3,-1.384843793E-2
2.667906536E0,4.261057824E-3,-5.326322280E-4,-1.384843793E-2
2.670731180E0,-2.663161140E-3,4.261057824E-3,-1.544633508E-2
2.671912421E0,-5.326322280E-4,-1.597896684E-3,-1.704423130E-2
2.674833373E0,-7.456851192E-3,1.065264456E-3,-1.544633508E-2
2.676217960E0,-1.012001187E-2,1.065264456E-2,-9.054748341E-3
2.678875421E0,-1.384843793E-2,1.331580617E-2,-5.326322280E-3
2.680021344E0,-1.491370238E-2,1.810949668E-2,-2.663161140E-3
2.682950026E0,-1.544633508E-2,1.065264456E-2,-8.522115648E-3
2.684369883E0,-2.237055451E-2,4.793690052E-3,-1.491370238E-2
2.687052026E0,-2.183792181E-2,-1.012001187E-2,-1.810949668E-2
2.688240729E0,-2.450108156E-2,-6.391586736E-3,-2.183792181E-2
2.691154373E0,-2.396845073E-2,-5.858954508E-3,-2.556634694E-2
2.692379960E0,-1.970739290E-2,-3.728425596E-3,-2.503371425E-2
2.695255488E0,-1.118527725E-2,5.326322280E-3,-2.237055451E-2
2.696621960E0,5.326322280E-4,1.225054078E-2,-1.810949668E-2
2.699065421E0,5.326322280E-3,1.970739290E-2,-1.065264456E-2
2.700624229E0,1.065264456E-2,1.970739290E-2,-1.171790902E-2
2.703144998E0,9.587380104E-3,2.237055451E-2,-1.118527725E-2
2.704701421E0,1.438106969E-2,1.225054078E-2,-1.225054078E-2
2.707047806E0,1.065264456E-2,-1.065264456E-3,-1.970739290E-2
2.708658844E0,1.118527725E-2,-5.326322280E-3,-1.970739290E-2
2.711015806E0,8.522115648E-3,1.065264456E-3,-2.183792181E-2
2.712714652E0,7.989482954E-3,1.597896684E-3,-2.024002373E-2
2.715207113E0,7.456851192E-3,9.587380104E-3,-2.077265643E-2
2.717148844E0,9.587380104E-3,1.331580617E-2,-1.917476021E-2
2.719242075E0,1.012001187E-2,1.384843793E-2,-1.864212751E-2
2.720907921E0,1.012001187E-2,1.384843793E-2,-1.970739290E-2
2.723352575E0,9.054748341E-3,1.012001187E-2,-1.864212751E-2
2.725089036E0,5.326322280E-3,1.065264456E-2,-2.077265643E-2
2.727477883E0,3.728425596E-3,5.858954508E-3,-2.130528912E-2
2.729322383E0,5.326322280E-4,1.597896684E-3,-2.237055451E-2
2.731497229E0,2.663161140E-3,1.597896684E-3,-2.343581803E-2
2.733226152E0,3.728425596E-3,2.130528912E-3,-2.290318534E-2
2.736036565E0,6.391586736E-3,4.793690052E-3,-2.290318534E-2
2.737473383E0,1.065264456E-2,1.012001187E-2,-2.183792181E-2
2.739874921E0,1.278317347E-2,1.278317347E-2,-2.237055451E-2
2.741333344E0,1.544633508E-2,1.278317347E-2,-2.183792181E-2
2.743945113E0,1.810949668E-2,1.118527725E-2,-2.290318534E-2
2.745326421E0,1.917476021E-2,2.663161140E-3,-2.343581803E-2
2.748241949E0,1.597896591E-2,3.195793368E-3,-2.503371425E-2
2.749472190E0,1.384843793E-2,2.130528912E-3,-2.609897964E-2
2.752345218E0,1.278317347E-2,1.065264456E-3,-2.769687586E-2
2.753564421E0,1.012001187E-2,2.663161140E-3,-2.130528912E-2
2.756447718E0,8.522115648E-3,3.621899337E-2,-9.054748341E-3
2.757844036E0,1.597896591E-2,6.444849819E-2,-1.384843793E-2
2.760493306E0,2.769687586E-2,4.633900523E-2,-1.597896591E-2
2.761813767E0,3.036003746E-2,2.609897964E-2,-2.396845073E-2
2.764501603E0,2.077265643E-2,2.343581803E-2,-3.302319720E-2
2.765689690E0,0.000000000E0,1.864212751E-2,-3.302319720E-2
2.768568180E0,-1.225054078E-2,1.331580617E-2,-3.249056637E-2
2.769795229E0,-1.917476021E-2,1.012001187E-2,-3.355583176E-2
2.772669834E0,-5.326322280E-3,5.858954508E-3,-3.195793182E-2
2.773878613E0,-5.326322280E-3,1.704423130E-2,-2.822950855E-2
2.776770949E0,-1.065264456E-2,3.142530099E-2,-1.970739290E-2
2.778381459E0,-1.491370238E-2,5.113269389E-2,-1.864212751E-2
2.780621652E0,-1.331580617E-2,5.060006306E-2,-2.237055451E-2
2.782075152E0,-1.278317347E-2,3.249056637E-2,-2.609897964E-2
2.784828267E0,-7.456851192E-3,1.384843793E-2,-3.195793182E-2
2.786257036E0,-1.012001187E-2,7.989482954E-3,-3.515372798E-2
2.788529536E0,-1.171790902E-2,1.278317347E-2,-3.195793182E-2
2.790233267E0,-1.331580617E-2,2.343581803E-2,-2.716424316E-2
2.792609306E0,-7.989482954E-3,3.355583176E-2,-2.609897964E-2
2.794307652E0,4.261057824E-3,2.982740477E-2,-2.556634694E-2
2.796792883E0,1.491370238E-2,2.609897964E-2,-2.556634694E-2
2.798647998E0,1.810949668E-2,2.450108156E-2,-2.556634694E-2
2.800829267E0,1.544633508E-2,2.716424316E-2,-2.450108156E-2
2.802461113E0,9.054748341E-3,2.982740477E-2,-2.343581803E-2
2.804886383E0,1.012001187E-2,2.450108156E-2,-2.716424316E-2
2.806562652E0,1.384843793E-2,1.651159860E-2,-3.355583176E-2
2.808912306E0,2.130528912E-2,5.858954508E-3,-3.355583176E-2
2.810628921E0,2.450108156E-2,1.065264456E-2,-3.408846259E-2
2.813018036E0,2.450108156E-2,1.757686399E-2,-2.929477207E-2
2.814836536E0,2.077265643E-2,2.663161233E-2,-2.609897964E-2
2.817284690E0,2.183792181E-2,3.195793182E-2,-2.343581803E-2
2.819156498E0,2.290318534E-2,2.663161233E-2,-2.556634694E-2
2.821302229E0,2.183792181E-2,1.491370238E-2,-2.982740477E-2
2.822871844E0,1.864212751E-2,7.989482954E-3,-3.302319720E-2
2.825528959E0,1.544633508E-2,1.065264456E-2,-3.568635881E-2
2.826924690E0,1.225054078E-2,1.171790902E-2,-3.462109342E-2
2.829849487E0,1.278317347E-2,1.438106969E-2,-3.568635881E-2
2.831077229E0,1.544633508E-2,1.651159860E-2,-3.728425503E-2
2.833950641E0,2.077265643E-2,1.970739290E-2,-3.621899337E-2
2.835249382E0,2.077265643E-2,1.917476021E-2,-3.355583176E-2
2.838052487E0,2.024002373E-2,2.822950855E-2,-3.355583176E-2
2.839410767E0,2.077265643E-2,2.450108156E-2,-3.302319720E-2
2.842107564E0,1.970739290E-2,2.024002373E-2,-3.675162420E-2
2.843272036E0,2.024002373E-2,1.331580617E-2,-3.888215125E-2
2.846169075E0,2.396845073E-2,1.118527725E-2,-3.994741663E-2
2.847483306E0,2.024002373E-2,1.544633508E-2,-4.048004746E-2
2.850274564E0,2.130528912E-2,1.810949668E-2,-3.621899337E-2
2.851537190E0,1.970739290E-2,2.183792181E-2,-3.462109342E-2
2.854376257E0,2.290318534E-2,2.237055451E-2,-3.675162420E-2
2.855604844E0,2.290318534E-2,1.757686399E-2,-3.834952042E-2
2.858477910E0,2.769687586E-2,1.491370238E-2,-3.781688958E-2
2.859817729E0,2.503371425E-2,1.331580617E-2,-3.728425503E-2
2.862271613E0,2.450108156E-2,1.438106969E-2,-3.408846259E-2
2.863704690E0,2.609897964E-2,1.757686399E-2,-3.568635881E-2
2.866472229E0,2.769687586E-2,1.491370238E-2,-3.408846259E-2
2.867798921E0,3.142530099E-2,1.278317347E-2,-3.675162420E-2
2.870144267E0,3.408846259E-2,1.544633508E-2,-3.728425503E-2
2.871890921E0,3.515372798E-2,1.438106969E-2,-3.834952042E-2
2.874231882E0,3.515372798E-2,1.597896591E-2,-3.941478580E-2
2.875958113E0,3.249056637E-2,1.651159860E-2,-3.834952042E-2
2.878491382E0,3.355583176E-2,1.704423130E-2,-3.941478580E-2
2.880245344E0,3.515372798E-2,1.384843793E-2,-3.994741663E-2
2.882523613E0,3.462109342E-2,1.438106969E-2,-3.994741663E-2
2.884151306E0,3.142530099E-2,1.544633508E-2,-4.048004746E-2
2.886574536E0,3.089267015E-2,1.384843793E-2,-4.101268202E-2
2.888189729E0,3.302319720E-2,1.225054078E-2,-4.048004746E-2
2.890546459E0,3.355583176E-2,9.054748341E-3,-3.888215125E-2
2.892297575E0,3.408846259E-2,1.118527725E-2,-4.101268202E-2
2.894646459E0,3.195793182E-2,1.331580617E-2,-3.994741663E-2
2.896406421E0,3.036003746E-2,1.331580617E-2,-4.048004746E-2
2.898835575E0,3.036003746E-2,1.491370238E-2,-4.367584363E-2
2.900728652E0,3.195793182E-2,1.331580617E-2,-4.207794741E-2
2.903048152E0,3.249056637E-2,9.054748341E-3,-4.207794741E-2
2.904559459E0,2.982740477E-2,1.171790902E-2,-4.048004746E-2
2.907184459E0,3.036003746E-2,1.171790902E-2,-3.888215125E-2
2.908684421E0,2.609897964E-2,1.331580617E-2,-3.781688958E-2
2.911501382E0,2.556634694E-2,1.597896591E-2,-3.675162420E-2
2.912703690E0,2.609897964E-2,1.438106969E-2,-3.621899337E-2
2.915612987E0,2.077265643E-2,1.118527725E-2,-3.888215125E-2
2.916866806E0,1.970739290E-2,1.012001187E-2,-3.834952042E-2
2.919714756E0,1.651159860E-2,1.225054078E-2,-3.994741663E-2
2.921093421E0,1.278317347E-2,1.171790902E-2,-3.728425503E-2
2.923739729E0,1.065264456E-2,9.587380104E-3,-3.834952042E-2
2.924927767E0,1.225054078E-2,8.522115648E-3,-3.781688958E-2
2.927819075E0,1.278317347E-2,1.171790902E-2,-3.568635881E-2
2.928998844E0,1.384843793E-2,1.331580617E-2,-3.302319720E-2
2.931932795E0,1.544633508E-2,1.438106969E-2,-3.249056637E-2
2.933213806E0,1.544633508E-2,1.384843793E-2,-3.089267015E-2
2.936035372E0,1.704423130E-2,1.438106969E-2,-3.302319720E-2
2.937250921E0,1.864212751E-2,7.989482954E-3,-3.408846259E-2
2.940138718E0,2.130528912E-2,5.326322280E-3,-3.675162420E-2
2.941471767E0,2.343581803E-2,7.989482954E-3,-3.621899337E-2
2.943903652E0,2.237055451E-2,1.118527725E-2,-3.462109342E-2
2.945359075E0,2.716424316E-2,1.438106969E-2,-3.195793182E-2
2.948066152E0,3.036003746E-2,1.438106969E-2,-3.249056637E-2
2.949508998E0,3.355583176E-2,1.597896591E-2,-3.142530099E-2
2.951918459E0,3.302319720E-2,1.651159860E-2,-3.355583176E-2
2.953563652E0,3.355583176E-2,1.651159860E-2,-3.302319720E-2
2.955927229E0,2.663161233E-2,1.438106969E-2,-3.408846259E-2
2.957617998E0,2.663161233E-2,1.331580617E-2,-3.515372798E-2
2.960084690E0,2.183792181E-2,9.054748341E-3,-3.621899337E-2
2.961946613E0,2.503371425E-2,1.171790902E-2,-3.621899337E-2
2.964096305E0,2.343581803E-2,1.118527725E-2,-3.408846259E-2
2.965883729E0,2.343581803E-2,1.544633508E-2,-3.355583176E-2
2.968273613E0,2.183792181E-2,1.864212751E-2,-3.195793182E-2
2.969971729E0,2.609897964E-2,1.917476021E-2,-3.249056637E-2
2.972229729E0,2.556634694E-2,1.704423130E-2,-3.249056637E-2
2.973953344E0,2.343581803E-2,1.438106969E-2,-3.515372798E-2
2.976341921E0,2.822950855E-2,1.438106969E-2,-3.568635881E-2
2.978074459E0,2.450108156E-2,1.438106969E-2,-3.515372798E-2
2.980468536E0,2.716424316E-2,1.597896591E-2,-3.675162420E-2
2.982411036E0,3.036003746E-2,1.757686399E-2,-3.675162420E-2
2.984659613E0,3.036003746E-2,1.864212751E-2,-3.462109342E-2
2.986255498E0,3.036003746E-2,1.704423130E-2,-3.568635881E-2
2.988909882E0,3.195793182E-2,1.810949668E-2,-3.515372798E-2
2.990280998E0,2.769687586E-2,1.917476021E-2,-3.621899337E-2
2.993189256E0,2.822950855E-2,2.024002373E-2,-3.621899337E-2
2.994398536E0,2.822950855E-2,1.864212751E-2,-3.675162420E-2
2.997291679E0,2.769687586E-2,1.651159860E-2,-3.781688958E-2
2.998488267E0,2.663161233E-2,1.597896591E-2,-3.941478580E-2
3.001394179E0,2.822950855E-2,1.491370238E-2,-3.568635881E-2
3.002828652E0,2.077265643E-2,1.597896591E-2,-3.621899337E-2
3.005444102E0,2.343581803E-2,2.077265643E-2,-3.621899337E-2
3.006621536E0,2.183792181E-2,2.024002373E-2,-3.462109342E-2
3.009510794E0,2.237055451E-2,1.810949668E-2,-3.515372798E-2
3.010720690E0,1.970739290E-2,1.864212751E-2,-3.462109342E-2
3.013612102E0,1.757686399E-2,1.704423130E-2,-3.462109342E-2
3.014845536E0,1.810949668E-2,1.384843793E-2,-3.462109342E-2
3.017713333E0,1.917476021E-2,1.597896591E-2,-3.568635881E-2
3.019118805E0,1.864212751E-2,1.757686399E-2,-3.515372798E-2
3.021815025E0,1.970739290E-2,1.597896591E-2,-3.515372798E-2
3.023422959E0,2.130528912E-2,1.864212751E-2,-3.462109342E-2
3.025626882E0,1.970739290E-2,2.130528912E-2,-3.515372798E-2
3.027086729E0,2.077265643E-2,2.183792181E-2,-3.675162420E-2
3.029825229E0,2.024002373E-2,2.130528912E-2,-3.568635881E-2
3.031267921E0,2.130528912E-2,1.704423130E-2,-3.675162420E-2
3.033595421E0,2.130528912E-2,1.544633508E-2,-3.728425503E-2
3.035297382E0,2.183792181E-2,1.384843793E-2,-3.728425503E-2
3.037691190E0,2.183792181E-2,1.438106969E-2,-3.781688958E-2
3.039388575E0,2.183792181E-2,1.491370238E-2,-3.675162420E-2
3.041870036E0,2.290318534E-2,1.544633508E-2,-3.249056637E-2
3.043718190E0,2.450108156E-2,1.491370238E-2,-3.355583176E-2
3.045816805E0,2.716424316E-2,1.544633508E-2,-3.515372798E-2
3.047522767E0,2.716424316E-2,1.544633508E-2,-3.462109342E-2
3.050047921E0,2.609897964E-2,1.384843793E-2,-3.408846259E-2
3.051728267E0,2.609897964E-2,1.225054078E-2,-3.408846259E-2
3.053983882E0,2.929477207E-2,1.331580617E-2,-3.462109342E-2
3.055755267E0,2.822950855E-2,1.065264456E-2,-3.462109342E-2
3.058087344E0,2.876213938E-2,1.597896591E-2,-3.355583176E-2
3.059801421E0,2.982740477E-2,1.384843793E-2,-3.462109342E-2
3.062205805E0,2.822950855E-2,1.438106969E-2,-3.302319720E-2
3.064104575E0,2.716424316E-2,1.491370238E-2,-3.355583176E-2
3.066367075E0,2.503371425E-2,1.491370238E-2,-3.302319720E-2
3.067944421E0,2.396845073E-2,1.757686399E-2,-3.515372798E-2
3.070609036E0,1.970739290E-2,1.384843793E-2,-3.568635881E-2
3.072028382E0,1.864212751E-2,1.278317347E-2,-3.462109342E-2
3.074908525E0,1.651159860E-2,1.065264456E-2,-3.568635881E-2
3.076104767E0,1.491370238E-2,1.012001187E-2,-3.355583176E-2
3.079010640E0,1.651159860E-2,1.225054078E-2,-3.515372798E-2
3.080211113E0,1.810949668E-2,1.065264456E-2,-3.355583176E-2
3.083112986E0,1.970739290E-2,9.587380104E-3,-3.355583176E-2
3.084517459E0,2.077265643E-2,1.438106969E-2,-3.355583176E-2
3.087169063E0,2.237055451E-2,1.384843793E-2,-3.408846259E-2
3.088343382E0,2.609897964E-2,1.278317347E-2,-3.355583176E-2
3.091236025E0,2.982740477E-2,1.171790902E-2,-3.515372798E-2
3.092531959E0,2.929477207E-2,1.384843793E-2,-3.515372798E-2
3.095337409E0,3.355583176E-2,1.171790902E-2,-3.515372798E-2
3.096520152E0,3.302319720E-2,1.704423130E-2,-3.728425503E-2
3.099438986E0,3.462109342E-2,1.704423130E-2,-3.568635881E-2
3.100788498E0,3.568635881E-2,1.810949668E-2,-3.675162420E-2
3.103541217E0,2.982740477E-2,1.704423130E-2,-3.515372798E-2
3.104895536E0,3.302319720E-2,1.438106969E-2,-3.462109342E-2
3.107482421E0,2.822950855E-2,1.438106969E-2,-3.408846259E-2
3.108746498E0,2.609897964E-2,1.225054078E-2,-3.568635881E-2
3.111388921E0,2.183792181E-2,1.331580617E-2,-3.302319720E-2
3.112805844E0,2.077265643E-2,7.456851192E-3,-3.036003746E-2
3.115233036E0,2.077265643E-2,1.065264456E-2,-2.822950855E-2
3.117011305E0,2.183792181E-2,7.456851192E-3,-2.876213938E-2
3.119360498E0,2.396845073E-2,9.587380104E-3,-2.929477207E-2
3.121041305E0,2.024002373E-2,1.065264456E-2,-2.929477207E-2
3.123439767E0,2.130528912E-2,1.012001187E-2,-3.355583176E-2
3.125327921E0,1.970739290E-2,8.522115648E-3,-3.728425503E-2
3.127476421E0,2.237055451E-2,1.012001187E-2,-3.888215125E-2
3.129160536E0,2.503371425E-2,1.118527725E-2,-3.888215125E-2
3.131684421E0,3.089267015E-2,1.597896591E-2,-3.568635881E-2
3.133398805E0,3.515372798E-2,1.757686399E-2,-3.408846259E-2
3.135790382E0,3.408846259E-2,2.024002373E-2,-2.929477207E-2
3.137391075E0,3.408846259E-2,1.757686399E-2,-2.716424316E-2
3.139794959E0,3.036003746E-2,1.597896591E-2,-2.663161233E-2
3.141476536E0,2.503371425E-2,1.171790902E-2,-2.929477207E-2
3.143877959E0,1.810949668E-2,9.054748341E-3,-2.822950855E-2
3.145825690E0,1.544633508E-2,1.118527725E-2,-3.089267015E-2
3.147999575E0,9.587380104E-3,1.012001187E-2,-3.036003746E-2
3.149657575E0,9.054748341E-3,1.704423130E-2,-3.089267015E-2
3.152426459E0,7.989482954E-3,1.544633508E-2,-3.036003746E-2
3.153799382E0,9.054748341E-3,1.810949668E-2,-2.769687586E-2
3.156576575E0,6.924218964E-3,1.704423130E-2,-2.769687586E-2
3.157772536E0,7.456851192E-3,1.757686399E-2,-2.716424316E-2
3.160687486E0,6.391586736E-3,1.544633508E-2,-2.716424316E-2
3.161875113E0,3.728425596E-3,1.225054078E-2,-2.716424316E-2
3.164789102E0,4.793690052E-3,1.278317347E-2,-2.982740477E-2
3.166308844E0,3.728425596E-3,1.384843793E-2,-2.769687586E-2
3.168839678E0,6.391586736E-3,1.438106969E-2,-3.036003746E-2
3.169998690E0,6.924218964E-3,1.544633508E-2,-2.876213938E-2
3.172906986E0,9.587380104E-3,1.597896591E-2,-2.716424316E-2
3.174097344E0,1.278317347E-2,1.757686399E-2,-2.769687586E-2
3.176993690E0,1.597896591E-2,1.704423130E-2,-2.503371425E-2
3.178194921E0,1.757686399E-2,1.864212751E-2,-2.396845073E-2
3.181110794E0,1.864212751E-2,1.651159860E-2,-2.609897964E-2
3.182369882E0,1.810949668E-2,1.384843793E-2,-2.450108156E-2
3.185213909E0,1.864212751E-2,1.651159860E-2,-2.716424316E-2
3.186569305E0,1.757686399E-2,9.587380104E-3,-2.503371425E-2
3.188979113E0,1.864212751E-2,1.171790902E-2,-2.663161233E-2
3.190418421E0,1.810949668E-2,1.278317347E-2,-2.450108156E-2
3.193087498E0,1.651159860E-2,1.384843793E-2,-2.450108156E-2
3.194501767E0,1.757686399E-2,1.491370238E-2,-2.343581803E-2
3.196857459E0,1.438106969E-2,1.384843793E-2,-2.290318534E-2
3.198655728E0,1.651159860E-2,1.278317347E-2,-2.396845073E-2
3.201177190E0,1.438106969E-2,1.438106969E-2,-2.663161233E-2
3.202762075E0,1.651159860E-2,1.278317347E-2,-2.556634694E-2
3.205156113E0,1.544633508E-2,1.491370238E-2,-2.822950855E-2
3.207010536E0,1.704423130E-2,1.438106969E-2,-2.769687586E-2
3.209138151E0,1.651159860E-2,1.597896591E-2,-2.769687586E-2
3.210844690E0,1.917476021E-2,1.118527725E-2,-2.716424316E-2
3.213285575E0,2.024002373E-2,1.225054078E-2,-2.876213938E-2
3.215041921E0,2.343581803E-2,8.522115648E-3,-2.609897964E-2
3.217395305E0,2.343581803E-2,5.326322280E-3,-2.609897964E-2
3.219104228E0,2.769687586E-2,4.261057824E-3,-2.609897964E-2
3.221421228E0,3.036003746E-2,8.522115648E-3,-2.663161233E-2
3.223219075E0,3.302319720E-2,1.012001187E-2,-2.663161233E-2
3.225585767E0,3.355583176E-2,1.757686399E-2,-2.929477207E-2
3.227408036E0,3.302319720E-2,2.343581803E-2,-2.822950855E-2
3.229602613E0,3.249056637E-2,2.237055451E-2,-2.822950855E-2
3.231360228E0,3.462109342E-2,2.077265643E-2,-2.876213938E-2
3.234144794E0,2.929477207E-2,1.597896591E-2,-2.450108156E-2
3.235406728E0,3.036003746E-2,1.171790902E-2,-2.396845073E-2
3.238246217E0,2.396845073E-2,6.391586736E-3,-2.396845073E-2
3.239543113E0,2.663161233E-2,5.858954508E-3,-2.290318534E-2
3.242325575E0,2.183792181E-2,1.065264456E-2,-2.290318534E-2
3.243566690E0,1.810949668E-2,1.651159860E-2,-2.183792181E-2
3.246446947E0,1.278317347E-2,2.077265643E-2,-2.077265643E-2
3.247874536E0,9.587380104E-3,2.183792181E-2,-1.864212751E-2
3.250496332E0,1.012001187E-2,1.491370238E-2,-1.970739290E-2
3.252326536E0,1.278317347E-2,9.054748341E-3,-1.970739290E-2
3.254563178E0,1.970739290E-2,8.522115648E-3,-2.024002373E-2
3.255783036E0,1.757686399E-2,8.522115648E-3,-2.183792181E-2
3.258664370E0,2.343581803E-2,1.544633508E-2,-2.290318534E-2
3.259885305E0,2.237055451E-2,2.556634694E-2,-2.237055451E-2
3.262746305E0,1.491370238E-2,3.249056637E-2,-1.970739290E-2
3.263972113E0,1.331580617E-2,3.568635881E-2,-2.290318534E-2
3.266866486E0,5.858954508E-3,3.195793182E-2,-2.503371425E-2
3.268531036E0,1.597896684E-3,2.183792181E-2,-2.769687586E-2
3.270705767E0,-5.326322280E-3,1.597896591E-2,-2.822950855E-2
3.272130959E0,-6.924218964E-3,1.065264456E-2,-2.876213938E-2
3.274807613E0,-6.924218964E-3,6.391586736E-3,-2.716424316E-2
3.276317113E0,-3.728425596E-3,7.456851192E-3,-2.237055451E-2
3.278614921E0,-1.065264456E-3,1.384843793E-2,-1.970739290E-2
3.280392228E0,3.195793368E-3,1.917476021E-2,-1.757686399E-2
3.282738805E0,-2.130528912E-3,2.343581803E-2,-2.024002373E-2
3.284447344E0,2.663161140E-3,2.556634694E-2,-2.237055451E-2
3.286911921E0,2.663161140E-3,2.450108156E-2,-2.663161233E-2
3.288732305E0,5.858954508E-3,2.237055451E-2,-2.822950855E-2
3.290872959E0,7.456851192E-3,2.290318534E-2,-2.822950855E-2
3.292560613E0,6.924218964E-3,1.704423130E-2,-2.343581803E-2
3.295015574E0,2.130528912E-3,1.757686399E-2,-2.237055451E-2
3.296726267E0,5.858954508E-3,1.438106969E-2,-1.864212751E-2
3.299068305E0,6.924218964E-3,9.587380104E-3,-1.970739290E-2
3.300923959E0,5.326322280E-3,1.065264456E-2,-2.077265643E-2
3.303116305E0,7.456851192E-3,1.171790902E-2,-2.183792181E-2
3.304861728E0,5.858954508E-3,1.544633508E-2,-2.343581803E-2
3.307277921E0,7.456851192E-3,1.970739290E-2,-2.290318534E-2
3.309157921E0,5.326322280E-3,2.024002373E-2,-2.183792181E-2
3.311348190E0,9.587380104E-3,2.130528912E-2,-2.130528912E-2
3.312976844E0,6.924218964E-3,1.864212751E-2,-2.077265643E-2
3.315699882E0,9.587380104E-3,1.384843793E-2,-2.024002373E-2
3.317157267E0,9.587380104E-3,1.171790902E-2,-2.237055451E-2
3.319951139E0,1.065264456E-2,8.522115648E-3,-2.237055451E-2
3.321254267E0,1.225054078E-2,9.587380104E-3,-2.024002373E-2
3.324053139E0,1.278317347E-2,1.012001187E-2,-1.757686399E-2
3.325274574E0,1.438106969E-2,1.597896591E-2,-1.917476021E-2
3.328155332E0,1.384843793E-2,1.757686399E-2,-1.810949668E-2
3.329592305E0,1.278317347E-2,1.970739290E-2,-2.077265643E-2
3.332212139E0,9.587380104E-3,1.917476021E-2,-2.130528912E-2
3.333560498E0,7.456851192E-3,2.024002373E-2,-2.609897964E-2
3.336278524E0,6.924218964E-3,1.438106969E-2,-2.663161233E-2
3.337561151E0,2.663161140E-3,1.278317347E-2,-2.556634694E-2
3.340377421E0,1.065264456E-3,1.384843793E-2,-2.503371425E-2
3.341566267E0,-1.597896684E-3,1.331580617E-2,-2.503371425E-2
3.344467382E0,-1.597896684E-3,1.491370238E-2,-2.503371425E-2
3.345810421E0,-1.597896684E-3,1.491370238E-2,-2.343581803E-2
3.348582524E0,-1.597896684E-3,1.491370238E-2,-2.503371425E-2
3.350145690E0,-3.195793368E-3,1.491370238E-2,-2.450108156E-2
3.352361113E0,-1.065264456E-3,1.278317347E-2,-2.609897964E-2
3.353826151E0,3.728425596E-3,1.225054078E-2,-2.609897964E-2
3.356474267E0,5.326322280E-3,1.438106969E-2,-2.822950855E-2
3.357879267E0,7.456851192E-3,1.438106969E-2,-2.876213938E-2
3.360269421E0,1.278317347E-2,1.331580617E-2,-2.822950855E-2
3.361967074E0,1.704423130E-2,1.864212751E-2,-2.822950855E-2
3.364358190E0,2.183792181E-2,1.331580617E-2,-2.503371425E-2
3.366164690E0,2.396845073E-2,1.438106969E-2,-2.290318534E-2
3.368610267E0,2.343581803E-2,9.054748341E-3,-2.343581803E-2
3.370417574E0,2.237055451E-2,9.587380104E-3,-2.396845073E-2
3.372503344E0,2.396845073E-2,1.012001187E-2,-2.769687586E-2
3.374219690E0,1.864212751E-2,1.012001187E-2,-2.769687586E-2
3.376655459E0,1.651159860E-2,1.065264456E-2,-2.716424316E-2
3.378311613E0,1.757686399E-2,1.065264456E-2,-2.769687586E-2
3.380686421E0,1.810949668E-2,9.054748341E-3,-2.556634694E-2
3.382467651E0,1.597896591E-2,6.924218964E-3,-2.237055451E-2
3.384833151E0,2.183792181E-2,6.924218964E-3,-2.503371425E-2
3.386586690E0,2.609897964E-2,3.728425596E-3,-2.556634694E-2
3.388948805E0,2.290318534E-2,7.989482954E-3,-2.503371425E-2
3.390780382E0,2.343581803E-2,9.587380104E-3,-2.556634694E-2
3.393029497E0,2.556634694E-2,1.491370238E-2,-2.556634694E-2
3.394705074E0,2.290318534E-2,1.438106969E-2,-2.503371425E-2
3.397309767E0,1.757686399E-2,1.491370238E-2,-2.609897964E-2
3.398993574E0,1.917476021E-2,1.171790902E-2,-2.609897964E-2
3.401625178E0,1.651159860E-2,4.793690052E-3,-2.982740477E-2
3.402822959E0,1.704423130E-2,2.130528912E-3,-2.769687586E-2
3.405726216E0,1.864212751E-2,5.326322280E-4,-2.450108156E-2
3.406917382E0,1.970739290E-2,1.065264456E-3,-2.183792181E-2
3.409827101E0,2.237055451E-2,5.326322280E-3,-2.290318534E-2
3.411190151E0,2.396845073E-2,9.054748341E-3,-2.024002373E-2
3.413875562E0,2.450108156E-2,1.225054078E-2,-2.130528912E-2
3.415066190E0,2.183792181E-2,1.331580617E-2,-2.290318534E-2
3.417942370E0,2.183792181E-2,1.278317347E-2,-2.503371425E-2
3.419183190E0,2.237055451E-2,1.491370238E-2,-2.929477207E-2
3.422044139E0,1.864212751E-2,8.522115648E-3,-2.716424316E-2
3.423268690E0,2.077265643E-2,7.456851192E-3,-2.716424316E-2
3.426142997E0,1.757686399E-2,2.663161140E-3,-2.343581803E-2
3.427337805E0,1.757686399E-2,4.261057824E-3,-1.970739290E-2
3.430247062E0,2.024002373E-2,1.597896684E-3,-1.864212751E-2
3.431745882E0,2.183792181E-2,3.195793368E-3,-2.077265643E-2
3.434122997E0,2.077265643E-2,4.261057824E-3,-2.024002373E-2
3.526495575E0,1.054611802E-1,2.024002373E-2,1.917476021E-2
3.529235660E0,1.054611802E-1,2.024002373E-2,1.917476021E-2
3.530489421E0,1.054611802E-1,2.024002373E-2,1.917476021E-2
3.532923305E0,1.054611802E-1,2.024002373E-2,1.917476021E-2
3.534616113E0,1.054611802E-1,2.024002373E-2,1.917476021E-2
3.537012498E0,1.054611802E-1,2.024002373E-2,1.917476021E-2
3.538803382E0,1.054611802E-1,2.024002373E-2,1.917476021E-2
3.541159036E0,1.054611802E-1,2.024002373E-2,1.917476021E-2
3.542826305E0,1.054611802E-1,2.024002373E-2,1.917476021E-2
3.545432690E0,1.054611802E-1,2.024002373E-2,1.917476021E-2
3.546904267E0,1.054611802E-1,2.024002373E-2,1.917476021E-2
3.549783775E0,1.054611802E-1,2.024002373E-2,1.917476021E-2
3.551077421E0,1.054611802E-1,2.024002373E-2,1.917476021E-2
3.553616690E0,1.054611802E-1,2.024002373E-2,1.917476021E-2
3.555179344E0,1.054611802E-1,2.024002373E-2,1.917476021E-2
3.557564344E0,1.054611802E-1,2.024002373E-2,1.917476021E-2
3.559275228E0,7.723167539E-2,2.503371425E-2,1.012001187E-2
3.561710113E0,9.108011425E-2,1.757686399E-2,7.456851192E-3
3.563403882E0,9.534116834E-2,4.793690052E-3,5.326322280E-3
3.566226083E0,8.735168725E-2,-5.326322280E-4,5.326322280E-3
3.567570536E0,7.243798673E-2,-1.597896684E-3,5.326322280E-3
3.570359121E0,5.592638254E-2,-5.326322280E-3,5.858954508E-3
3.572002844E0,4.048004746E-2,-3.728425596E-3,5.326322280E-3
3.574422544E0,2.769687586E-2,-4.793690052E-3,4.261057824E-3
3.575624728E0,7.456851192E-3,-3.728425596E-3,4.261057824E-3
3.578491467E0,-1.171790902E-2,3.195793368E-3,7.989482954E-3
3.579729998E0,-3.462109342E-2,4.261057824E-3,9.587380104E-3
3.582594814E0,-5.645901710E-2,2.663161140E-3,6.924218964E-3
3.583904728E0,-7.030745596E-2,-4.261057824E-3,4.261057824E-3
3.586697621E0,-7.829693705E-2,-1.651159860E-2,-2.663161140E-3
3.587915151E0,-8.255799860E-2,-2.024002373E-2,-1.597896684E-3
3.590799929E0,-8.149272949E-2,-1.651159860E-2,-1.065264456E-3
3.592414113E0,-7.030745596E-2,-3.195793368E-3,6.391586736E-3
3.594860775E0,-6.338323653E-2,-5.326322280E-4,9.587380104E-3
3.596042536E0,-4.580637068E-2,3.728425596E-3,1.118527725E-2
3.598928314E0,-2.450108156E-2,1.597896684E-3,1.118527725E-2
3.600162382E0,5.858954508E-3,0.000000000E0,7.989482954E-3
3.602823536E0,2.024002373E-2,2.130528912E-3,6.924218964E-3
3.604327113E0,3.462109342E-2,-5.326322280E-4,6.924218964E-3
3.607134583E0,4.580637068E-2,0.000000000E0,3.728425596E-3
3.608374651E0,6.285060197E-2,-1.065264456E-3,1.065264456E-3
3.611237467E0,6.977482140E-2,0.000000000E0,1.597896684E-3
3.612520151E0,6.764429063E-2,5.326322280E-3,6.391586736E-3
3.614906151E0,6.285060197E-2,1.331580617E-2,1.065264456E-2
3.616625536E0,5.166532472E-2,1.544633508E-2,1.278317347E-2
3.619059190E0,3.408846259E-2,8.522115648E-3,1.225054078E-2
3.620715190E0,1.544633508E-2,-3.195793368E-3,9.587380104E-3
3.623146728E0,0.000000000E0,-1.544633508E-2,5.858954508E-3
3.624953728E0,-2.024002373E-2,-2.024002373E-2,4.793690052E-3
3.627588613E0,-3.781688958E-2,-1.864212751E-2,4.261057824E-3
3.628903075E0,-5.060006306E-2,-1.278317347E-2,7.456851192E-3
3.631782313E0,-5.219795927E-2,-5.326322280E-3,6.391586736E-3
3.633060344E0,-5.539375171E-2,-2.130528912E-3,6.391586736E-3
3.635576305E0,-4.953479767E-2,2.130528912E-3,7.989482954E-3
3.637148459E0,-4.953479767E-2,6.391586736E-3,6.924218964E-3
3.639572651E0,-4.633900523E-2,7.456851192E-3,5.858954508E-3
3.641270344E0,-4.580637068E-2,5.858954508E-3,5.858954508E-3
3.643722575E0,-3.355583176E-2,-5.326322280E-3,3.728425596E-3
3.645389421E0,-2.077265643E-2,-1.225054078E-2,3.728425596E-3
3.648223506E0,-9.587380104E-3,-1.171790902E-2,2.663161140E-3
3.649480151E0,1.597896684E-3,-3.728425596E-3,6.924218964E-3
3.652328275E0,1.225054078E-2,3.728425596E-3,6.924218964E-3
3.653948151E0,2.130528912E-2,8.522115648E-3,1.065264456E-2
3.656392775E0,3.408846259E-2,8.522115648E-3,9.587380104E-3
3.657584728E0,3.888215125E-2,6.391586736E-3,7.456851192E-3
3.660461621E0,3.834952042E-2,2.130528912E-3,5.858954508E-3
3.661736536E0,3.568635881E-2,-5.326322280E-4,2.663161140E-3
3.664565198E0,2.822950855E-2,-1.597896684E-3,2.130528912E-3
3.665849690E0,1.917476021E-2,-1.065264456E-3,-5.326322280E-4
3.668668236E0,1.491370238E-2,-6.391586736E-3,2.130528912E-3
3.670095074E0,7.456851192E-3,-7.989482954E-3,3.195793368E-3
3.672771775E0,1.597896684E-3,-5.858954508E-3,5.858954508E-3
3.674397844E0,-6.391586736E-3,-2.130528912E-3,8.522115648E-3
3.676833390E0,-1.810949668E-2,1.597896684E-3,9.054748341E-3
3.678037536E0,-2.503371425E-2,1.597896684E-3,7.456851192E-3
3.680901506E0,-2.876213938E-2,-3.728425596E-3,6.391586736E-3
3.682146767E0,-2.929477207E-2,-9.054748341E-3,2.130528912E-3
3.684845998E0,-2.876213938E-2,-1.012001187E-2,0.000000000E0
3.686310805E0,-2.769687586E-2,-6.391586736E-3,-5.326322280E-4
3.689109005E0,-2.450108156E-2,5.326322280E-4,3.195793368E-3
3.690368459E0,-1.970739290E-2,7.456851192E-3,5.326322280E-3
3.693243236E0,-1.384843793E-2,8.522115648E-3,6.924218964E-3
3.694508382E0,-4.793690052E-3,6.924218964E-3,8.522115648E-3
3.696959844E0,4.261057824E-3,2.130528912E-3,7.456851192E-3
3.698617574E0,4.261057824E-3,2.130528912E-3,6.924218964E-3
3.701033267E0,3.728425596E-3,-1.065264456E-3,5.858954508E-3
3.702806344E0,7.456851192E-3,-5.326322280E-3,3.195793368E-3
3.705170998E0,1.012001187E-2,-6.924218964E-3,1.065264456E-3
3.706877998E0,1.384843793E-2,-3.195793368E-3,1.065264456E-3
3.709480536E0,1.331580617E-2,3.195793368E-3,3.195793368E-3
3.710936844E0,1.384843793E-2,6.391586736E-3,5.858954508E-3
3.713784813E0,1.171790902E-2,1.065264456E-2,5.858954508E-3
3.715051959E0,8.522115648E-3,9.054748341E-3,6.924218964E-3
3.717463267E0,7.989482954E-3,3.728425596E-3,5.326322280E-3
3.719233574E0,3.728425596E-3,-3.195793368E-3,4.793690052E-3
3.721592690E0,-1.597896684E-3,-7.456851192E-3,2.130528912E-3
3.723282728E0,-5.858954508E-3,-7.989482954E-3,2.130528912E-3
3.725758421E0,-1.225054078E-2,-5.858954508E-3,5.858954508E-3
3.727423151E0,-1.012001187E-2,-5.326322280E-3,4.793690052E-3
3.730224659E0,-7.989482954E-3,-2.130528912E-3,5.858954508E-3
3.731501421E0,-3.195793368E-3,1.597896684E-3,7.456851192E-3
3.734328005E0,-1.597896684E-3,3.728425596E-3,7.989482954E-3
3.735993151E0,1.065264456E-3,6.391586736E-3,7.989482954E-3
3.738391505E0,0.000000000E0,4.793690052E-3,4.793690052E-3
3.739668728E0,5.326322280E-4,4.793690052E-3,4.261057824E-3
3.742460082E0,3.195793368E-3,-1.597896684E-3,3.195793368E-3
3.743720074E0,3.728425596E-3,-1.065264456E-3,2.130528912E-3
3.746562736E0,3.728425596E-3,4.261057824E-3,2.130528912E-3
3.747836805E0,1.597896684E-3,7.456851192E-3,3.728425596E-3
3.750665044E0,-5.326322280E-4,1.012001187E-2,4.793690052E-3
3.751942228E0,-1.597896684E-3,7.456851192E-3,5.326322280E-3
3.754770044E0,-3.728425596E-3,5.858954508E-3,5.326322280E-3
3.756436574E0,-3.195793368E-3,3.195793368E-3,3.195793368E-3
3.758831505E0,-1.118527725E-2,1.065264456E-3,2.663161140E-3
3.760051305E0,-1.171790902E-2,1.597896684E-3,2.130528912E-3
3.762899159E0,-1.384843793E-2,1.065264456E-3,1.597896684E-3
3.764132805E0,-1.331580617E-2,3.195793368E-3,2.130528912E-3
3.766877498E0,-9.054748341E-3,1.597896684E-3,4.261057824E-3
3.768300536E0,-8.522115648E-3,4.793690052E-3,4.793690052E-3
3.771104890E0,-3.728425596E-3,7.989482954E-3,5.858954508E-3
3.772364651E0,-1.065264456E-3,8.522115648E-3,6.924218964E-3
3.775208159E0,1.065264456E-3,6.391586736E-3,7.456851192E-3
3.776484921E0,2.663161140E-3,-5.326322280E-4,5.858954508E-3
3.778938382E0,6.924218964E-3,-1.597896684E-3,3.728425596E-3
3.780631074E0,7.989482954E-3,-4.261057824E-3,5.858954508E-3
3.783025305E0,8.522115648E-3,-3.728425596E-3,5.326322280E-3
3.784734305E0,1.118527725E-2,0.000000000E0,3.728425596E-3
3.787212036E0,1.225054078E-2,4.261057824E-3,6.391586736E-3
3.788946190E0,1.491370238E-2,7.456851192E-3,5.326322280E-3
3.791425767E0,1.278317347E-2,9.587380104E-3,6.391586736E-3
3.792913151E0,9.587380104E-3,7.989482954E-3,4.793690052E-3
3.795752851E0,4.793690052E-3,4.793690052E-3,1.597896684E-3
3.797037421E0,-5.326322280E-4,0.000000000E0,2.130528912E-3
3.799452997E0,-5.858954508E-3,1.065264456E-3,-5.326322280E-4
3.801257190E0,-9.054748341E-3,-2.663161140E-3,-1.597896684E-3
3.803694728E0,-1.278317347E-2,-2.130528912E-3,1.065264456E-3
3.805280536E0,-1.384843793E-2,5.326322280E-4,2.130528912E-3
3.807703459E0,-1.491370238E-2,2.663161140E-3,1.597896684E-3
3.809392074E0,-1.438106969E-2,2.663161140E-3,2.130528912E-3
3.812192120E0,-1.384843793E-2,2.130528912E-3,2.130528912E-3
3.813468536E0,-1.012001187E-2,1.065264456E-3,5.326322280E-4
3.816325428E0,-6.924218964E-3,0.000000000E0,-5.326322280E-4
3.818011459E0,-4.261057824E-3,-2.663161140E-3,-2.663161140E-3
3.820389120E0,-1.597896684E-3,-3.728425596E-3,-2.130528912E-3
3.821736074E0,3.728425596E-3,-5.326322280E-4,-2.130528912E-3
3.824457813E0,8.522115648E-3,-5.326322280E-4,-2.130528912E-3
3.825793190E0,1.384843793E-2,3.195793368E-3,-1.597896684E-3
3.828561236E0,1.704423130E-2,3.195793368E-3,-1.597896684E-3
3.829813651E0,2.077265643E-2,4.261057824E-3,-5.326322280E-4
3.832665043E0,2.130528912E-2,2.130528912E-3,-1.597896684E-3
3.834016459E0,1.970739290E-2,5.326322280E-4,5.326322280E-4
3.836769390E0,1.917476021E-2,-1.597896684E-3,-2.663161140E-3
3.838521190E0,1.544633508E-2,0.000000000E0,-2.130528912E-3
3.840831274E0,1.438106969E-2,-3.195793368E-3,-2.663161140E-3
3.842055036E0,1.225054078E-2,1.065264456E-3,-2.130528912E-3
3.844899813E0,6.924218964E-3,4.793690052E-3,-4.261057824E-3
3.846144651E0,3.728425596E-3,6.391586736E-3,-4.261057824E-3
3.848834228E0,-5.326322280E-4,2.130528912E-3,-5.326322280E-3
3.850277690E0,-5.858954508E-3,5.326322280E-3,-4.261057824E-3
3.853106466E0,-1.012001187E-2,-5.326322280E-4,-6.924218964E-3
3.854355728E0,-1.278317347E-2,-5.326322280E-4,-7.456851192E-3
3.857210389E0,-2.024002373E-2,-1.597896684E-3,-6.391586736E-3
3.858486267E0,-1.810949668E-2,-3.195793368E-3,-9.054748341E-3
3.860916805E0,-1.438106969E-2,-2.130528912E-3,-6.924218964E-3
3.862574574E0,-1.384843793E-2,-1.597896684E-3,-8.522115648E-3
3.864962151E0,-1.171790902E-2,2.663161140E-3,-6.391586736E-3
3.866721459E0,-9.587380104E-3,5.326322280E-3,-3.728425596E-3
3.869199805E0,-3.728425596E-3,4.793690052E-3,-5.858954508E-3
3.870895190E0,0.000000000E0,2.663161140E-3,-5.326322280E-3
3.873546959E0,5.326322280E-3,1.597896684E-3,-5.858954508E-3
3.874984574E0,6.391586736E-3,5.326322280E-4,-6.391586736E-3
3.877758082E0,1.118527725E-2,0.000000000E0,-8.522115648E-3
3.879040228E0,1.544633508E-2,0.000000000E0,-4.793690052E-3
3.881445651E0,1.810949668E-2,0.000000000E0,-3.728425596E-3
3.883190882E0,2.024002373E-2,4.261057824E-3,-2.663161140E-3
3.885846574E0,2.343581803E-2,4.261057824E-3,-2.663161140E-3
3.887363420E0,2.183792181E-2,3.195793368E-3,-3.195793368E-3
3.889781382E0,1.810949668E-2,1.065264456E-3,-3.728425596E-3
3.891458651E0,1.384843793E-2,1.597896684E-3,-6.924218964E-3
3.894200928E0,1.065264456E-2,0.000000000E0,-4.793690052E-3
3.895437997E0,6.391586736E-3,-2.663161140E-3,-6.391586736E-3
3.898304274E0,4.793690052E-3,-1.597896684E-3,-5.858954508E-3
3.899958151E0,1.065264456E-3,-5.326322280E-4,-7.989482954E-3
3.902368428E0,-1.065264456E-3,5.326322280E-3,-6.924218964E-3
3.903727459E0,-3.728425596E-3,6.924218964E-3,-3.728425596E-3
3.906437466E0,-7.456851192E-3,5.326322280E-3,-4.261057824E-3
3.907678690E0,-4.261057824E-3,5.326322280E-3,-4.793690052E-3
3.910541889E0,-4.793690052E-3,3.728425596E-3,-6.924218964E-3
3.911830805E0,-8.522115648E-3,2.663161140E-3,-6.391586736E-3
3.914645966E0,-7.989482954E-3,0.000000000E0,-5.858954508E-3
3.915945920E0,-7.456851192E-3,0.000000000E0,-6.924218964E-3
3.918750043E0,-1.597896684E-3,4.793690052E-3,-4.793690052E-3
3.920456228E0,-5.326322280E-4,6.391586736E-3,-5.326322280E-3
3.922812274E0,1.597896684E-3,7.989482954E-3,-4.261057824E-3
3.924136113E0,6.924218964E-3,8.522115648E-3,-4.261057824E-3
3.926881466E0,7.456851192E-3,1.065264456E-2,-5.858954508E-3
3.928112420E0,7.989482954E-3,7.456851192E-3,-3.195793368E-3
3.930781190E0,6.924218964E-3,5.326322280E-3,-4.261057824E-3
3.932370190E0,7.456851192E-3,2.130528912E-3,-6.924218964E-3
3.935090197E0,4.793690052E-3,3.195793368E-3,-6.924218964E-3
3.936698805E0,4.793690052E-3,2.130528912E-3,-7.456851192E-3
3.939220812E0,3.195793368E-3,2.663161140E-3,-6.391586736E-3
3.940536536E0,3.195793368E-3,3.728425596E-3,-4.261057824E-3
3.942917536E0,2.130528912E-3,7.989482954E-3,-4.793690052E-3
3.944707613E0,1.597896684E-3,5.326322280E-3,-4.793690052E-3
3.946989920E0,0.000000000E0,7.456851192E-3,-5.326322280E-3
3.948717882E0,5.326322280E-4,3.728425596E-3,-6.924218964E-3
3.951185151E0,-3.195793368E-3,2.130528912E-3,-6.391586736E-3
3.953046728E0,-1.597896684E-3,1.597896684E-3,-6.391586736E-3
3.955520267E0,-1.065264456E-3,-1.065264456E-3,-6.391586736E-3
3.956918497E0,2.130528912E-3,1.065264456E-3,-5.858954508E-3
3.959771774E0,2.663161140E-3,3.195793368E-3,-4.261057824E-3
3.961079690E0,5.858954508E-3,1.597896684E-3,-3.195793368E-3
3.963445459E0,6.924218964E-3,3.195793368E-3,-4.261057824E-3
3.965155728E0,9.054748341E-3,5.858954508E-3,-4.261057824E-3
3.967668267E0,9.587380104E-3,3.728425596E-3,-4.793690052E-3
3.969284536E0,8.522115648E-3,2.130528912E-3,-5.326322280E-3
3.971738497E0,1.012001187E-2,1.065264456E-3,-4.793690052E-3
3.973406459E0,6.391586736E-3,5.326322280E-4,-5.858954508E-3
3.976215466E0,9.054748341E-3,3.195793368E-3,-6.391586736E-3
3.977471959E0,6.924218964E-3,1.597896684E-3,-4.793690052E-3
3.980321043E0,5.858954508E-3,4.261057824E-3,-5.326322280E-3
3.981947074E0,4.793690052E-3,5.326322280E-3,-6.924218964E-3
3.984387197E0,2.663161140E-3,5.858954508E-3,-5.858954508E-3
3.985619305E0,-1.065264456E-3,6.391586736E-3,-4.261057824E-3
3.988457812E0,-4.793690052E-3,3.195793368E-3,-6.924218964E-3
3.989789190E0,-6.924218964E-3,4.261057824E-3,-7.989482954E-3
3.992562312E0,-8.522115648E-3,1.065264456E-3,-7.989482954E-3
3.993853459E0,-1.065264456E-2,1.597896684E-3,-6.924218964E-3
3.996666581E0,-1.012001187E-2,2.663161140E-3,-6.924218964E-3
3.997956882E0,-7.456851192E-3,2.130528912E-3,-5.326322280E-3
4.000773274E0,-4.793690052E-3,3.195793368E-3,-4.261057824E-3
4.002461305E0,-2.663161140E-3,4.261057824E-3,-4.261057824E-3
4.004836120E0,-1.065264456E-3,1.065264456E-3,-5.326322280E-3
4.006059305E0,5.326322280E-4,0.000000000E0,-5.326322280E-3
4.008905004E0,3.195793368E-3,-1.597896684E-3,-5.858954508E-3
4.010161920E0,5.326322280E-3,-2.663161140E-3,-4.261057824E-3
4.012875459E0,7.989482954E-3,-1.065264456E-3,-3.728425596E-3
4.014428497E0,1.012001187E-2,-1.065264456E-3,-3.728425596E-3
4.017112620E0,1.438106969E-2,1.597896684E-3,-3.728425596E-3
4.018435267E0,1.438106969E-2,3.728425596E-3,-3.728425596E-3
4.021216312E0,1.651159860E-2,3.728425596E-3,-2.130528912E-3
4.022840190E0,1.491370238E-2,5.858954508E-3,-2.663161140E-3
4.025015036E0,1.704423130E-2,2.130528912E-3,-2.663161140E-3
4.026617459E0,1.278317347E-2,0.000000000E0,-3.728425596E-3
4.028982113E0,1.225054078E-2,5.326322280E-4,-4.793690052E-3
4.030715728E0,8.522115648E-3,-2.663161140E-3,-5.326322280E-3
4.033235113E0,6.391586736E-3,-1.597896684E-3,-6.924218964E-3
4.034950613E0,2.130528912E-3,1.065264456E-3,-4.793690052E-3
4.037505420E0,5.326322280E-4,5.326322280E-4,-4.261057824E-3
4.039073459E0,-3.195793368E-3,2.130528912E-3,-4.261057824E-3
4.041762312E0,-4.261057824E-3,4.261057824E-3,-4.261057824E-3
4.043024920E0,-6.924218964E-3,0.000000000E0,-5.858954508E-3
4.045399767E0,-7.989482954E-3,0.000000000E0,-4.793690052E-3
4.047134805E0,-9.054748341E-3,-2.130528912E-3,-5.858954508E-3
4.049617228E0,-9.054748341E-3,-3.195793368E-3,-6.391586736E-3
4.051337267E0,-7.989482954E-3,-3.728425596E-3,-5.858954508E-3
4.053806190E0,-5.858954508E-3,-5.326322280E-4,-5.858954508E-3
4.055482536E0,-3.195793368E-3,5.326322280E-4,-5.858954508E-3
4.058201196E0,-1.065264456E-3,3.195793368E-3,-4.261057824E-3
4.059507920E0,-5.326322280E-4,2.663161140E-3,-4.793690052E-3
4.062333543E0,1.065264456E-3,2.130528912E-3,-3.728425596E-3
4.063926843E0,6.391586736E-3,1.065264456E-3,-3.728425596E-3
4.066450927E0,5.326322280E-3,0.000000000E0,-3.728425596E-3
4.067718151E0,5.858954508E-3,-5.326322280E-4,-2.663161140E-3
4.070396927E0,7.456851192E-3,-1.065264456E-3,-4.261057824E-3
4.071726228E0,5.326322280E-3,-5.326322280E-4,-3.728425596E-3
4.074465927E0,4.793690052E-3,5.326322280E-4,-1.065264456E-3
4.075756190E0,5.858954508E-3,5.326322280E-4,0.000000000E0
4.078569235E0,5.326322280E-3,3.195793368E-3,0.000000000E0
4.079886074E0,3.728425596E-3,2.130528912E-3,0.000000000E0
4.082672927E0,2.130528912E-3,2.130528912E-3,1.065264456E-3
4.084615690E0,1.597896684E-3,-1.065264456E-3,-1.065264456E-3
4.086758773E0,-2.663161140E-3,-2.130528912E-3,-1.065264456E-3
4.088008228E0,-2.663161140E-3,5.326322280E-4,0.000000000E0
4.090826773E0,-2.663161140E-3,-5.326322280E-4,5.326322280E-4
4.092053267E0,-3.728425596E-3,5.326322280E-4,0.000000000E0
4.094709805E0,-5.326322280E-3,5.326322280E-4,5.326322280E-4
4.096216228E0,-3.728425596E-3,1.597896684E-3,5.326322280E-4
4.099032889E0,-4.793690052E-3,5.326322280E-4,1.597896684E-3
4.100439805E0,-4.261057824E-3,3.195793368E-3,1.065264456E-3
4.103136235E0,-7.456851192E-3,5.326322280E-4,2.130528912E-3
4.104490113E0,-5.326322280E-3,1.065264456E-3,1.065264456E-3
4.106939651E0,-5.326322280E-3,1.065264456E-3,-5.326322280E-4
4.108493728E0,-3.195793368E-3,1.065264456E-3,-5.326322280E-4
4.111007266E0,5.326322280E-4,5.326322280E-4,5.326322280E-4
4.112668882E0,-2.130528912E-3,2.130528912E-3,1.065264456E-3
4.115071651E0,3.728425596E-3,3.195793368E-3,1.597896684E-3
4.116840382E0,1.065264456E-3,4.261057824E-3,1.597896684E-3
4.119552997E0,3.195793368E-3,2.130528912E-3,2.663161140E-3
4.120912843E0,4.793690052E-3,2.130528912E-3,2.130528912E-3
4.123684004E0,5.326322280E-3,1.597896684E-3,5.326322280E-4
4.124954228E0,4.261057824E-3,1.065264456E-3,0.000000000E0
4.127280536E0,4.793690052E-3,-5.326322280E-4,1.065264456E-3
4.128992266E0,4.261057824E-3,1.597896684E-3,2.663161140E-3
4.131415728E0,3.195793368E-3,2.663161140E-3,1.597896684E-3
4.133095228E0,5.326322280E-4,1.597896684E-3,2.130528912E-3
4.135559151E0,-1.065264456E-3,4.261057824E-3,3.195793368E-3
4.137221613E0,-4.261057824E-3,3.195793368E-3,4.261057824E-3
4.140029465E0,-2.663161140E-3,3.195793368E-3,4.793690052E-3
4.141265728E0,-4.261057824E-3,-2.130528912E-3,2.663161140E-3
4.144132465E0,-7.989482954E-3,-1.065264456E-3,2.130528912E-3
4.145991036E0,-8.522115648E-3,-5.326322280E-4,3.728425596E-3
4.148218234E0,-9.587380104E-3,0.000000000E0,2.663161140E-3
4.149448613E0,-7.456851192E-3,-5.326322280E-4,3.728425596E-3
