"Time (s)","Acceleration x (m/s^2)","Acceleration y (m/s^2)","Acceleration z (m/s^2)"
6.331961000E-3,-8.762778044E-1,9.205705643E0,2.367865562E0
9.190236000E-3,-7.972691655E-1,9.220070839E0,2.082955360E0
1.060600000E-2,-5.171475410E-1,9.188945770E0,2.547430515E0
1.325739000E-2,-2.585737705E-1,9.069235802E0,3.203441858E0
1.456900000E-2,-3.830722570E-1,8.939949036E0,3.495534420E0
1.731096100E-2,-8.212111592E-1,8.899248123E0,3.366247654E0
1.851815400E-2,-1.201889277E0,9.011775017E0,3.421314240E0
2.134103800E-2,-1.323993564E0,9.069235802E0,3.904942989E0
2.255996100E-2,-1.312022567E0,8.904036522E0,4.498704910E0
2.547311500E-2,-1.288080573E0,8.683769226E0,4.898536682E0
2.678742300E-2,-1.290474772E0,8.695740700E0,5.202600479E0
2.966758200E-2,-1.364694953E0,8.765172005E0,5.250484467E0
3.075811500E-2,-1.479616642E0,8.698134422E0,5.295974255E0
3.377073600E-2,-1.462857246E0,8.571242332E0,5.398924828E0
3.514684600E-2,-1.264138460E0,8.556877136E0,5.556941986E0
3.776438500E-2,-1.019929886E0,8.604761124E0,5.504269600E0
3.904980800E-2,-8.259995580E-1,8.621520042E0,5.204994678E0
4.161076900E-2,-6.631938815E-1,8.643068314E0,4.752490520E0
4.307146100E-2,-5.482721925E-1,8.688557625E0,4.316745758E0
4.587092300E-2,-5.482721925E-1,8.753201485E0,4.017470360E0
4.726307700E-2,-6.536170840E-1,8.860940933E0,3.804386616E0
4.964557700E-2,-8.762778044E-1,9.081207275E0,3.557783842E0
5.140665400E-2,-1.225831270E0,9.375694275E0,3.153163671E0
5.375507700E-2,-1.623268723E0,9.581595421E0,2.628833532E0
5.557265400E-2,-1.817199111E0,9.636661530E0,2.274491549E0
5.785480800E-2,-1.601720929E0,9.560047150E0,2.317587137E0
5.953700000E-2,-1.113303781E0,9.387664795E0,2.638410330E0
6.194192300E-2,-6.584054828E-1,9.179368973E0,2.887407303E0
6.366346100E-2,-4.046200812E-1,9.028534889E0,2.925714493E0
6.659596600E-2,-3.615244627E-1,8.995016098E0,2.952050686E0
6.778234600E-2,-4.812345505E-1,9.006986618E0,3.205836058E0
7.011007700E-2,-7.015010715E-1,8.963891029E0,3.682282209E0
7.182503800E-2,-9.864110947E-1,8.851364136E0,4.170699596E0
7.423069200E-2,-1.405396342E0,8.801085472E0,4.592078686E0
7.603588500E-2,-1.553836942E0,8.853757858E0,4.661510944E0
7.834311500E-2,-1.517923832E0,8.851364136E0,4.668693542E0
8.003361500E-2,-1.302445769E0,8.746018410E0,4.707000732E0
8.247600000E-2,-9.983820915E-1,8.614337921E0,4.783615112E0
8.411800000E-2,-6.991068721E-1,8.532935143E0,4.831499100E0
8.685661500E-2,-5.099649429E-1,8.554482460E0,4.742913723E0
8.822065400E-2,-5.051765442E-1,8.659827232E0,4.467580318E0
9.112573100E-2,-6.727706790E-1,8.801085472E0,4.096478939E0
9.232203800E-2,-9.074024558E-1,8.918401718E0,3.825934410E0
9.525238400E-2,-1.063025594E0,8.992621422E0,3.749319792E0
9.656869200E-2,-1.094150186E0,9.033323288E0,3.775655985E0
9.933211500E-2,-1.065419793E0,9.054870605E0,3.682282209E0
1.005554610E-1,-1.053448796E0,9.071630478E0,3.387795448E0
1.034290770E-1,-1.029506683E0,9.114726067E0,3.074155092E0
1.046245000E-1,-9.672574997E-1,9.155426979E0,2.961627483E0
1.075907740E-1,-9.050082564E-1,9.143456459E0,3.086126089E0
1.087414610E-1,-9.409212470E-1,9.081207275E0,3.289633036E0
1.116493460E-1,-1.079784989E0,9.064447403E0,3.423708439E0
1.128761920E-1,-1.235408068E0,9.121908188E0,3.488351822E0
1.157975430E-1,-1.307234168E0,9.162610054E0,3.576937437E0
1.170980380E-1,-1.211466074E0,9.100360870E0,3.773261786E0
1.198601920E-1,-9.768342972E-1,8.954314232E0,4.039018154E0
1.210900000E-1,-6.392518282E-1,8.760383606E0,4.364629745E0
1.237132310E-1,-5.793967843E-1,8.724471092E0,4.424484730E0
1.251714230E-1,-6.392518282E-1,8.755595207E0,4.355052948E0
1.281094660E-1,-7.565677166E-1,8.846575737E0,4.273650169E0
1.292773840E-1,-8.906430602E-1,8.932766914E0,4.252102375E0
1.317229610E-1,-1.017535686E0,8.983044624E0,4.268861771E0
1.334037690E-1,-1.089361787E0,8.997409821E0,4.283226967E0
1.359238460E-1,-1.063025594E0,9.006986618E0,4.213795185E0
1.376243080E-1,-9.528923035E-1,9.004592896E0,4.039018154E0
1.399004610E-1,-8.068459630E-1,8.987833023E0,3.837905407E0
1.415842690E-1,-6.512228847E-1,8.971074104E0,3.718195200E0
1.439542310E-1,-5.291185975E-1,8.983044624E0,3.720589399E0
1.456470770E-1,-5.219359994E-1,9.016563416E0,3.720589399E0
1.480944610E-1,-6.584054828E-1,9.035717010E0,3.581725836E0
1.496756150E-1,-8.738836050E-1,9.109937668E0,3.387795448E0
1.520783460E-1,-1.041477680E0,9.246406555E0,3.301604033E0
1.537991920E-1,-1.103726983E0,9.337387085E0,3.371036053E0
1.562159610E-1,-1.074996591E0,9.320627213E0,3.526659012E0
1.580682690E-1,-9.935936928E-1,9.224859238E0,3.627215624E0
1.602072310E-1,-8.619126081E-1,9.114726067E0,3.646369219E0
1.618925770E-1,-6.991068721E-1,9.016563416E0,3.622427225E0
1.644085380E-1,-5.195417404E-1,8.904036522E0,3.622427225E0
1.659977690E-1,-3.878606856E-1,8.829815865E0,3.675099611E0
1.687553840E-1,-3.998316824E-1,8.848969460E0,3.804386616E0
1.701231540E-1,-6.153098345E-1,8.923190117E0,3.960009575E0
1.730057350E-1,-9.600749016E-1,8.985439301E0,4.084507942E0
1.742185770E-1,-1.266532660E0,9.009381294E0,4.165910721E0
1.771093510E-1,-1.386242747E0,8.995016098E0,4.220977783E0
1.784686920E-1,-1.280897856E0,8.927978516E0,4.259284973E0
1.811551200E-1,-9.169792533E-1,8.762778282E0,4.252102375E0
1.823811150E-1,-8.188169599E-1,8.719682693E0,4.218583584E0
1.852235040E-1,-7.948749661E-1,8.731653214E0,4.060565948E0
1.864207690E-1,-9.816226959E-1,8.839392662E0,3.952826977E0
1.893266580E-1,-1.204283476E0,8.966285706E0,3.940855980E0
1.905168070E-1,-1.347935557E0,9.059659004E0,4.060565948E0
1.934189230E-1,-1.328781962E0,9.052476883E0,4.192247391E0
1.946193070E-1,-1.134851575E0,8.947132111E0,4.209006786E0
1.975323120E-1,-8.451532125E-1,8.844181061E0,4.096478939E0
1.989476920E-1,-5.602431893E-1,8.832210541E0,3.916913986E0
2.015667350E-1,-3.639186621E-1,8.894459724E0,3.749319792E0
2.027741540E-1,-2.968810201E-1,8.956708908E0,3.593696833E0
2.054106540E-1,-3.447650373E-1,9.014169693E0,3.457227230E0
2.068599610E-1,-4.908113480E-1,9.121908188E0,3.366247654E0
2.096981540E-1,-7.062895298E-1,9.241618156E0,3.344699860E0
2.109578840E-1,-9.457096457E-1,9.277531624E0,3.387795448E0
2.133690000E-1,-1.125274777E0,9.241618156E0,3.471592426E0
2.151561920E-1,-1.149216771E0,9.203310966E0,3.591302633E0
2.175179230E-1,-1.046266198E0,9.191340446E0,3.720589399E0
2.193263070E-1,-8.978256583E-1,9.174580574E0,3.828328609E0
2.214785770E-1,-7.302315235E-1,9.100360870E0,3.904942989E0
2.231640380E-1,-5.386953950E-1,9.002198219E0,3.976768970E0
2.255453840E-1,-3.591302633E-1,8.911218643E0,4.050989151E0
2.273494610E-1,-2.370259613E-1,8.810662270E0,4.127603531E0
2.298237310E-1,-2.250549644E-1,8.757989883E0,4.235342979E0
2.314243840E-1,-3.495534360E-1,8.781931877E0,4.359841347E0
2.337708070E-1,-5.985504389E-1,8.858546257E0,4.424484730E0
2.355215770E-1,-8.978256583E-1,8.930372238E0,4.414907932E0
2.380130380E-1,-1.194706678E0,8.985439301E0,4.390965939E0
2.399896150E-1,-1.194706678E0,8.985439301E0,4.436455727E0
2.419393840E-1,-1.074996591E0,8.925583839E0,4.429273129E0
2.438690770E-1,-8.930372596E-1,8.825027466E0,4.299986362E0
2.463581920E-1,-6.991068721E-1,8.777143478E0,4.132391930E0
2.477516920E-1,-5.554547906E-1,8.817844391E0,4.027047157E0
2.503907690E-1,-4.979939461E-1,8.863334656E0,4.010287762E0
2.518022690E-1,-5.123591423E-1,8.884882927E0,4.005499363E0
2.546857730E-1,-5.650315881E-1,8.927978516E0,3.960009575E0
2.559390770E-1,-6.224924326E-1,9.006986618E0,3.890577793E0
2.587887350E-1,-7.015010715E-1,9.071630478E0,3.794809580E0
2.601721920E-1,-8.092401624E-1,9.074024200E0,3.689464808E0
2.628403070E-1,-9.145850539E-1,9.064447403E0,3.593696833E0
2.640261150E-1,-9.816226959E-1,9.109937668E0,3.531447411E0
2.669129660E-1,-1.012747288E0,9.157821655E0,3.466804028E0
2.681813460E-1,-1.000776291E0,9.162610054E0,3.402160645E0
2.710168500E-1,-9.409212470E-1,9.157821655E0,3.383007050E0
2.722529610E-1,-8.188169599E-1,9.148244858E0,3.380612850E0
2.751164230E-1,-6.751648784E-1,9.119514465E0,3.383007050E0
2.763219230E-1,-5.722141862E-1,9.078812599E0,3.416525841E0
2.792238890E-1,-5.506663918E-1,9.042900085E0,3.476380825E0
2.805963840E-1,-6.344634295E-1,9.033323288E0,3.524264812E0
2.832674660E-1,-7.996633649E-1,9.033323288E0,3.531447411E0
2.846187310E-1,-9.720458984E-1,9.059659004E0,3.533841610E0
2.872557310E-1,-1.122880578E0,9.121908188E0,3.622427225E0
2.885583840E-1,-1.254561663E0,9.131484985E0,3.782838583E0
2.914390810E-1,-1.335964561E0,9.064447403E0,3.924096584E0
2.926461150E-1,-1.302445769E0,8.980650902E0,4.010287762E0
2.950301150E-1,-1.134851575E0,8.925583839E0,4.058171749E0
2.967370770E-1,-9.097966552E-1,8.889671326E0,4.118026733E0
2.991933070E-1,-6.727706790E-1,8.813055992E0,4.213795185E0
3.012098840E-1,-6.344634295E-1,8.784325600E0,4.247313976E0
3.032631150E-1,-6.799532771E-1,8.827422142E0,4.256890774E0
3.048514610E-1,-7.685387731E-1,8.889671326E0,4.235342979E0
3.072283460E-1,-8.643068075E-1,8.923190117E0,4.194641590E0
3.089722690E-1,-9.217676520E-1,8.927978516E0,4.134786129E0
3.118627350E-1,-9.241618514E-1,8.942343712E0,4.031835556E0
3.131064230E-1,-8.978256583E-1,8.978256226E0,3.871424198E0
3.155271540E-1,-8.738836050E-1,9.030928612E0,3.696647406E0
3.173134230E-1,-8.882488012E-1,9.100360870E0,3.560178041E0
3.197015770E-1,-9.624691010E-1,9.162610054E0,3.457227230E0
3.216032690E-1,-1.036689281E0,9.203310966E0,3.380612850E0
3.236238460E-1,-1.051054597E0,9.208099365E0,3.342305660E0
3.253235380E-1,-1.000776291E0,9.176975250E0,3.383007050E0
3.277508840E-1,-9.289502501E-1,9.117119789E0,3.469198227E0
3.298500380E-1,-8.667010069E-1,9.062053680E0,3.521870613E0
3.320954230E-1,-8.092401624E-1,9.042900085E0,3.521870613E0
3.335478840E-1,-7.517793179E-1,9.064447403E0,3.521870613E0
3.363821580E-1,-7.302315235E-1,9.081207275E0,3.576937437E0
3.376289230E-1,-7.757213712E-1,9.054870605E0,3.687070608E0
3.404855810E-1,-8.738836050E-1,9.006986618E0,3.785232782E0
3.418806540E-1,-9.888052940E-1,8.985439301E0,3.866635799E0
3.445381580E-1,-1.098938584E0,8.983044624E0,3.931279182E0
3.457267300E-1,-1.197100878E0,8.966285706E0,4.007893562E0
3.486056920E-1,-1.261744261E0,8.935160637E0,4.125209332E0
3.499274610E-1,-1.280897856E0,8.918401718E0,4.244919777E0
3.527097340E-1,-1.225831270E0,8.913613319E0,4.307168961E0
3.539694610E-1,-1.098938584E0,8.904036522E0,4.316745758E0
3.568126580E-1,-8.427590132E-1,8.856152534E0,4.302380562E0
3.580697690E-1,-7.062895298E-1,8.820239067E0,4.283226967E0
3.609158500E-1,-6.153098345E-1,8.801085472E0,4.201824188E0
3.623370380E-1,-5.913678408E-1,8.836998940E0,4.101267338E0
3.649515810E-1,-6.536170840E-1,8.932766914E0,4.043806553E0
3.663487300E-1,-7.972691655E-1,9.033323288E0,4.019864559E0
3.688185000E-1,-9.600749016E-1,9.088389397E0,3.962403774E0
3.702630770E-1,-1.043871999E0,9.085995674E0,3.873818398E0
3.730748070E-1,-9.600749016E-1,9.069235802E0,3.821146011E0
3.743360380E-1,-7.661445141E-1,9.050082207E0,3.830722809E0
3.767590000E-1,-6.057330370E-1,8.995016098E0,3.809175014E0
3.784249230E-1,-5.339069963E-1,8.947132111E0,3.722983599E0
3.808235380E-1,-5.171475410E-1,8.956708908E0,3.627215624E0
3.827206920E-1,-5.243301988E-1,8.997409821E0,3.591302633E0
3.848851150E-1,-5.770025849E-1,9.009381294E0,3.636792421E0
3.865550380E-1,-6.799532771E-1,8.992621422E0,3.720589399E0
3.889462300E-1,-7.876923680E-1,8.971074104E0,3.780444384E0
3.906624230E-1,-8.738836050E-1,8.975862503E0,3.801992416E0
3.932207300E-1,-9.313444495E-1,8.997409821E0,3.799597979E0
3.947576920E-1,-9.672574997E-1,8.997409821E0,3.833117008E0
3.971864610E-1,-9.840168953E-1,8.992621422E0,3.878606796E0
3.988615770E-1,-9.624691010E-1,8.978256226E0,3.885789394E0
4.016588840E-1,-8.762778044E-1,8.930372238E0,3.854664803E0
4.034407300E-1,-7.445967197E-1,8.911218643E0,3.837905407E0
4.054058070E-1,-6.368576288E-1,8.925583839E0,3.881000996E0
4.069813840E-1,-6.224924326E-1,8.918401718E0,3.921702385E0
4.094732690E-1,-6.847416759E-1,8.901641846E0,3.926490784E0
4.110875000E-1,-7.493851185E-1,8.923190117E0,3.928884983E0
4.138150770E-1,-7.876923680E-1,8.975862503E0,3.948038578E0
4.151875380E-1,-8.355764151E-1,9.016563416E0,3.948038578E0
4.180775800E-1,-9.265560508E-1,9.011775017E0,3.842693806E0
4.192850380E-1,-9.241618514E-1,9.021351814E0,3.778050184E0
4.221806960E-1,-8.738836050E-1,9.038111687E0,3.785232782E0
4.235634230E-1,-8.379706144E-1,9.023746490E0,3.806780815E0
4.262256960E-1,-8.643068075E-1,8.983044624E0,3.830722809E0
4.273959230E-1,-9.050082564E-1,8.968679428E0,3.840299606E0
4.302931570E-1,-8.954314590E-1,8.992621422E0,3.847482204E0
4.315910000E-1,-8.619126081E-1,8.997409821E0,3.883395195E0
4.343950030E-1,-8.643068075E-1,8.975862503E0,3.945644379E0
4.356434610E-1,-9.217676520E-1,8.947132111E0,4.024652958E0
4.384979260E-1,-9.768342972E-1,8.932766914E0,4.065354347E0
4.397481920E-1,-9.864110947E-1,8.920795441E0,4.046200752E0
4.426009260E-1,-9.385270476E-1,8.904036522E0,4.003105164E0
4.442564230E-1,-8.762778044E-1,8.896853447E0,3.983951569E0
4.466369650E-1,-8.571242094E-1,8.899248123E0,3.964797974E0
4.478169610E-1,-8.714894056E-1,8.896853447E0,3.933673382E0
4.505202690E-1,-8.810662031E-1,8.901641846E0,3.904942989E0
4.519645380E-1,-8.882488012E-1,8.942343712E0,3.914519787E0
4.547661530E-1,-9.265560508E-1,8.980650902E0,3.938461781E0
4.560153070E-1,-9.744400978E-1,8.978256226E0,3.902548790E0
4.584108070E-1,-9.576807022E-1,8.961497307E0,3.840299606E0
4.602028070E-1,-8.523358107E-1,8.949525833E0,3.782838583E0
4.626218070E-1,-7.422025204E-1,8.935160637E0,3.754108191E0
4.644646920E-1,-7.062895298E-1,8.916007042E0,3.725377798E0
4.665589610E-1,-7.374141216E-1,8.918401718E0,3.675099611E0
4.682560000E-1,-7.757213712E-1,8.959102631E0,3.634398222E0
4.706021530E-1,-8.140285611E-1,9.011775017E0,3.643975019E0
4.723403070E-1,-8.714894056E-1,9.023746490E0,3.691859007E0
4.748578460E-1,-9.361328483E-1,9.011775017E0,3.751713991E0
4.764555380E-1,-9.959878922E-1,9.021351814E0,3.806780815E0
4.788255770E-1,-9.481038451E-1,9.011775017E0,3.811569214E0
4.805470000E-1,-8.451532125E-1,8.978256226E0,3.835511208E0
4.830311920E-1,-7.398083210E-1,8.947132111E0,3.883395195E0
4.848430000E-1,-6.823474765E-1,8.939949036E0,3.931279182E0
4.869858460E-1,-6.607996821E-1,8.932766914E0,3.943250179E0
4.887508840E-1,-6.392518282E-1,8.920795441E0,3.940855980E0
4.911355380E-1,-6.488286853E-1,8.932766914E0,3.969586372E0
4.927599610E-1,-7.374141216E-1,8.968679428E0,4.015076160E0
4.955160380E-1,-8.667010069E-1,8.995016098E0,4.029441357E0
4.969547690E-1,-9.600749016E-1,9.006986618E0,4.000710964E0
4.997511950E-1,-9.768342972E-1,9.026140213E0,3.983951569E0
5.012185770E-1,-9.433154464E-1,9.042900085E0,3.981557369E0
5.038540800E-1,-9.050082564E-1,9.016563416E0,3.943250179E0
5.052515770E-1,-8.475474119E-1,8.968679428E0,3.904942989E0
5.079107340E-1,-7.422025204E-1,8.951920509E0,3.907337189E0
5.090813460E-1,-6.368576288E-1,8.966285706E0,3.928884983E0
5.119785420E-1,-6.057330370E-1,8.968679428E0,3.945644379E0
5.132336530E-1,-6.655880809E-1,8.961497307E0,3.938461781E0
5.160806570E-1,-7.565677166E-1,8.973467827E0,3.921702385E0
5.173386530E-1,-8.140285611E-1,8.997409821E0,3.931279182E0
5.201833110E-1,-8.403648138E-1,9.002198219E0,3.960009575E0
5.216306530E-1,-8.523358107E-1,8.983044624E0,3.971980572E0
5.242865800E-1,-8.643068075E-1,8.961497307E0,3.971980572E0
5.257553070E-1,-8.643068075E-1,8.949525833E0,3.943250179E0
5.283283880E-1,-8.331822157E-1,8.942343712E0,3.904942989E0
5.297252690E-1,-7.876923680E-1,8.935160637E0,3.897760391E0
5.321602300E-1,-7.685387731E-1,8.942343712E0,3.902548790E0
5.336526530E-1,-7.924807668E-1,8.961497307E0,3.904942989E0
5.364991570E-1,-8.619126081E-1,8.968679428E0,3.878606796E0
5.377534610E-1,-8.667010069E-1,8.980650902E0,3.866635799E0
5.401052690E-1,-8.547300100E-1,8.992621422E0,3.854664803E0
5.418231150E-1,-8.523358107E-1,8.997409821E0,3.833117008E0
5.442860760E-1,-8.523358107E-1,8.997409821E0,3.797203779E0
5.462234610E-1,-8.020575643E-1,8.983044624E0,3.744531393E0
5.483123070E-1,-7.254431248E-1,8.983044624E0,3.725377798E0
5.500179230E-1,-6.991068721E-1,8.983044624E0,3.706224203E0
5.523345760E-1,-7.254431248E-1,8.983044624E0,3.663128614E0
5.540399230E-1,-7.733271718E-1,9.026140213E0,3.646369219E0
5.569197720E-1,-7.972691655E-1,9.071630478E0,3.653551817E0
5.581340380E-1,-8.188169599E-1,9.081207275E0,3.658340216E0
5.605146150E-1,-8.427590132E-1,9.059659004E0,3.670311213E0
5.622396920E-1,-8.595184088E-1,9.030928612E0,3.699041605E0
5.646657690E-1,-8.451532125E-1,9.002198219E0,3.734954596E0
5.667711150E-1,-8.044517636E-1,8.978256226E0,3.770867586E0
5.687927690E-1,-7.757213712E-1,8.956708908E0,3.811569214E0
5.703691920E-1,-8.044517636E-1,8.954314232E0,3.854664803E0
5.728886920E-1,-8.858546019E-1,8.963891029E0,3.902548790E0
5.744423070E-1,-9.720458984E-1,8.973467827E0,3.943250179E0
5.772170760E-1,-1.019929886E0,8.980650902E0,3.998316765E0
5.786402300E-1,-1.029506683E0,8.971074104E0,4.046200752E0
5.814367340E-1,-1.034295082E0,8.949525833E0,4.072536945E0
5.828140380E-1,-1.024718285E0,8.923190117E0,4.079719543E0
5.855402340E-1,-9.935936928E-1,8.908824921E0,4.074931145E0
5.870345380E-1,-9.457096457E-1,8.913613319E0,4.077325344E0
5.895920410E-1,-9.121908545E-1,8.927978516E0,4.074931145E0
5.907896150E-1,-9.217676520E-1,8.954314232E0,4.041412354E0
5.936606570E-1,-9.504981041E-1,8.990227699E0,3.983951569E0
5.949415380E-1,-9.528923035E-1,9.033323288E0,3.895366192E0
5.977638870E-1,-9.145850539E-1,9.042900085E0,3.840299606E0
5.990293460E-1,-8.906430602E-1,9.042900085E0,3.792415380E0
6.018670030E-1,-8.834604025E-1,9.066842079E0,3.744531393E0
6.031491920E-1,-8.834604025E-1,9.100360870E0,3.694253206E0
6.059701570E-1,-8.667010069E-1,9.112331390E0,3.646369219E0
6.073828840E-1,-8.475474119E-1,9.114726067E0,3.622427225E0
6.100071180E-1,-8.355764151E-1,9.109937668E0,3.612850428E0
6.112341530E-1,-8.403648138E-1,9.109937668E0,3.610456228E0
6.138433840E-1,-8.379706144E-1,9.100360870E0,3.639186621E0
6.153585760E-1,-8.259995580E-1,9.085995674E0,3.677493811E0
6.181534990E-1,-8.283938169E-1,9.085995674E0,3.725377798E0
6.194547690E-1,-8.403648138E-1,9.081207275E0,3.758896589E0
6.218149610E-1,-8.403648138E-1,9.066842079E0,3.778050184E0
6.235036920E-1,-8.068459630E-1,9.071630478E0,3.818751812E0
6.259258070E-1,-7.613561153E-1,9.071630478E0,3.873818398E0
6.277841530E-1,-7.302315235E-1,9.047688484E0,3.904942989E0
6.299179230E-1,-7.278373241E-1,8.999804497E0,3.900154591E0
6.316074610E-1,-7.302315235E-1,8.980650902E0,3.895366192E0
6.339837300E-1,-7.374141216E-1,9.002198219E0,3.924096584E0
6.357211920E-1,-7.565677166E-1,9.023746490E0,3.948038578E0
6.382071530E-1,-7.852981687E-1,9.028534889E0,3.931279182E0
6.399506530E-1,-8.068459630E-1,9.038111687E0,3.900154591E0
6.421859990E-1,-8.140285611E-1,9.050082207E0,3.892971992E0
6.440223840E-1,-8.068459630E-1,9.038111687E0,3.883395195E0
6.463690380E-1,-7.876923680E-1,9.016563416E0,3.864241600E0
6.482748070E-1,-7.876923680E-1,8.990227699E0,3.835511208E0
6.503598070E-1,-8.188169599E-1,8.997409821E0,3.806780815E0
6.521134990E-1,-8.547300100E-1,9.021351814E0,3.790021181E0
6.545786530E-1,-8.834604025E-1,9.040505409E0,3.787626982E0
6.561906920E-1,-8.882488012E-1,9.045293808E0,3.794809580E0
6.590166950E-1,-8.762778044E-1,9.047688484E0,3.792415380E0
6.602766530E-1,-8.475474119E-1,9.045293808E0,3.785232782E0
6.631198870E-1,-7.900865674E-1,9.021351814E0,3.780444384E0
6.644959610E-1,-7.230489254E-1,9.002198219E0,3.797203779E0
6.672223100E-1,-6.775590777E-1,9.004592896E0,3.816357613E0
6.687152300E-1,-6.751648784E-1,9.002198219E0,3.816357613E0
6.712675020E-1,-6.847416759E-1,8.990227699E0,3.823540211E0
6.724930760E-1,-6.943184733E-1,9.004592896E0,3.857059002E0
6.753353490E-1,-6.991068721E-1,9.026140213E0,3.897760391E0
6.765903460E-1,-7.015010715E-1,9.023746490E0,3.912125587E0
6.794381950E-1,-7.086837292E-1,9.004592896E0,3.916913986E0
6.806663070E-1,-7.015010715E-1,8.997409821E0,3.928884983E0
6.835411950E-1,-6.823474765E-1,8.990227699E0,3.950432777E0
6.847634230E-1,-6.607996821E-1,8.975862503E0,3.969586372E0
6.876437330E-1,-6.560112834E-1,8.975862503E0,3.967192173E0
6.890910760E-1,-6.775590777E-1,8.980650902E0,3.964797974E0
6.916787330E-1,-7.134721279E-1,8.990227699E0,3.979163170E0
6.928611920E-1,-7.422025204E-1,8.983044624E0,3.995922565E0
6.954953460E-1,-7.589619160E-1,8.973467827E0,4.017470360E0
6.969536530E-1,-7.781155705E-1,8.987833023E0,4.031835556E0
6.998377300E-1,-7.996633649E-1,8.992621422E0,4.007893562E0
7.010778460E-1,-8.044517636E-1,8.975862503E0,3.974374771E0
7.034529610E-1,-7.996633649E-1,8.968679428E0,3.969586372E0
7.052534230E-1,-7.972691655E-1,8.971074104E0,3.976768970E0
7.077443070E-1,-8.116343617E-1,8.980650902E0,3.962403774E0
7.095711530E-1,-8.355764151E-1,8.980650902E0,3.921702385E0
7.116054990E-1,-8.499416113E-1,8.992621422E0,3.890577793E0
7.132744990E-1,-8.547300100E-1,9.014169693E0,3.885789394E0
7.156606530E-1,-8.619126081E-1,9.014169693E0,3.835511208E0
7.173907690E-1,-8.475474119E-1,9.011775017E0,3.768473387E0
7.199962300E-1,-8.188169599E-1,9.035717010E0,3.730166197E0
7.215199990E-1,-7.996633649E-1,9.076418877E0,3.722983599E0
7.238603460E-1,-8.116343617E-1,9.083600998E0,3.691859007E0
7.255738840E-1,-8.164227605E-1,9.059659004E0,3.634398222E0
7.280137690E-1,-7.972691655E-1,9.069235802E0,3.615244627E0
7.298521920E-1,-7.781155705E-1,9.088389397E0,3.629609823E0
7.320600760E-1,-7.805097699E-1,9.078812599E0,3.639186621E0
7.337480380E-1,-8.068459630E-1,9.064447403E0,3.627215624E0
7.361859990E-1,-8.427590132E-1,9.050082207E0,3.598485231E0
7.379221150E-1,-8.714894056E-1,9.054870605E0,3.603273630E0
7.406662300E-1,-9.050082564E-1,9.054870605E0,3.655946016E0
7.419496530E-1,-9.409212470E-1,9.023746490E0,3.718195200E0
7.447818870E-1,-9.552865028E-1,9.004592896E0,3.778050184E0
7.463162690E-1,-9.528923035E-1,9.009381294E0,3.806780815E0
7.488847330E-1,-9.576807022E-1,9.006986618E0,3.799597979E0
7.503067690E-1,-9.600749016E-1,9.004592896E0,3.792415380E0
7.529400410E-1,-9.457096457E-1,8.992621422E0,3.794809580E0
7.541851920E-1,-9.289502501E-1,8.980650902E0,3.809175014E0
7.570073100E-1,-9.241618514E-1,8.968679428E0,3.835511208E0
7.582549220E-1,-9.409212470E-1,8.973467827E0,3.864241600E0
7.611085410E-1,-9.720458984E-1,8.987833023E0,3.888183594E0
7.623715380E-1,-1.024718285E0,8.985439301E0,3.890577793E0
7.652101560E-1,-1.055842996E0,8.975862503E0,3.876212597E0
7.664722300E-1,-1.005564690E0,8.987833023E0,3.876212597E0
7.693118480E-1,-9.313444495E-1,9.014169693E0,3.878606796E0
7.706915380E-1,-8.882488012E-1,8.975862503E0,3.737348795E0
7.733525020E-1,-8.906430602E-1,8.961497307E0,3.641580820E0
7.745323460E-1,-8.738836050E-1,8.985439301E0,3.627215624E0
7.773088460E-1,-8.403648138E-1,9.069235802E0,3.605667830E0
7.786619990E-1,-9.576807022E-1,9.009381294E0,3.469198227E0
7.815218480E-1,-1.132457376E0,8.992621422E0,3.428496838E0
7.827685760E-1,-1.185129881E0,9.071630478E0,3.509899616E0
7.852519610E-1,-1.187524080E0,9.126696587E0,3.603273630E0
7.869518460E-1,-1.278503656E0,9.054870605E0,3.634398222E0
7.894096920E-1,-1.331176162E0,8.930372238E0,3.646369219E0
7.911170380E-1,-1.216254473E0,8.913613319E0,3.754108191E0
7.936070380E-1,-1.053448796E0,8.911218643E0,3.847482204E0
7.950265380E-1,-9.696516991E-1,8.848969460E0,3.861847401E0
7.973634990E-1,-9.313444495E-1,8.805873871E0,3.837905407E0
7.990439220E-1,-9.121908545E-1,8.832210541E0,3.864241600E0
8.019377330E-1,-9.624691010E-1,8.870517731E0,3.936067581E0
8.032260380E-1,-1.074996591E0,8.872911453E0,3.983951569E0
8.055939610E-1,-1.177947283E0,8.880094528E0,4.005499363E0
8.072530760E-1,-1.252167463E0,8.913613319E0,3.981557369E0
8.096838840E-1,-1.319205165E0,8.947132111E0,3.938461781E0
8.115055760E-1,-1.350329757E0,8.954314232E0,3.878606796E0
8.136988840E-1,-1.297657371E0,8.968679428E0,3.806780815E0
8.153314990E-1,-1.182735682E0,8.983044624E0,3.744531393E0
8.178144610E-1,-1.036689281E0,8.975862503E0,3.694253206E0
8.194577300E-1,-8.978256583E-1,8.942343712E0,3.632004023E0
8.221456150E-1,-8.068459630E-1,8.932766914E0,3.569754839E0
8.236266530E-1,-7.829039693E-1,8.973467827E0,3.524264812E0
8.264465400E-1,-8.379706144E-1,9.023746490E0,3.483563423E0
8.276129610E-1,-9.720458984E-1,9.064447403E0,3.466804028E0
8.305481170E-1,-1.132457376E0,9.090784073E0,3.469198227E0
8.319128460E-1,-1.261744261E0,9.109937668E0,3.495534420E0
8.345997330E-1,-1.237802267E0,9.105149269E0,3.529053211E0
8.357451920E-1,-1.170764685E0,9.090784073E0,3.605667830E0
8.386567690E-1,-1.089361787E0,9.057265282E0,3.711012602E0
8.398434220E-1,-1.000776291E0,9.011775017E0,3.828328609E0
8.427690400E-1,-8.858546019E-1,8.983044624E0,3.928884983E0
8.439404220E-1,-7.469909191E-1,8.954314232E0,3.998316765E0
8.468628070E-1,-6.368576288E-1,8.932766914E0,4.060565948E0
8.480851920E-1,-5.961562395E-1,8.904036522E0,4.101267338E0
8.509722710E-1,-6.153098345E-1,8.877699852E0,4.106055737E0
8.524359990E-1,-6.727706790E-1,8.892065048E0,4.103661537E0
8.550071170E-1,-7.661445141E-1,8.942343712E0,4.074931145E0
8.561604220E-1,-9.026140571E-1,8.983044624E0,4.022258759E0
8.588009990E-1,-1.029506683E0,9.011775017E0,3.967192173E0
8.602693070E-1,-1.082179189E0,9.042900085E0,3.909731388E0
8.631141150E-1,-1.065419793E0,9.074024200E0,3.828328609E0
8.644061150E-1,-1.039083481E0,9.093177795E0,3.727771997E0
8.667771150E-1,-1.022324085E0,9.095572472E0,3.648763418E0
8.684804610E-1,-9.935936928E-1,9.093177795E0,3.600879431E0
8.709023840E-1,-9.361328483E-1,9.066842079E0,3.560178041E0
8.727404990E-1,-8.547300100E-1,9.028534889E0,3.517082214E0
8.748896530E-1,-7.685387731E-1,9.009381294E0,3.485957623E0
8.765678840E-1,-7.374141216E-1,9.016563416E0,3.485957623E0
8.789423450E-1,-7.805097699E-1,9.026140213E0,3.495534420E0
8.806911920E-1,-8.690952063E-1,9.028534889E0,3.485957623E0
8.831309610E-1,-9.696516991E-1,9.038111687E0,3.483563423E0
8.847726530E-1,-1.048660398E0,9.066842079E0,3.529053211E0
8.871379610E-1,-1.134851575E0,9.074024200E0,3.605667830E0
8.888658840E-1,-1.122880578E0,9.117119789E0,3.696647406E0
8.912903840E-1,-7.326257229E-1,9.361329079E0,3.696647406E0
8.931880760E-1,-4.429273009E-1,9.358934402E0,3.564966440E0
8.952798070E-1,-1.987187415E-1,8.983044624E0,3.371036053E0
8.969783450E-1,6.224924326E-2,8.784325600E0,3.588908434E0
8.994642300E-1,2.442085743E-1,8.911218643E0,4.012681961E0
9.010961530E-1,4.548983276E-2,9.071630478E0,4.113238335E0
9.039368840E-1,-4.764461517E-1,9.018958092E0,3.830722809E0
9.053236530E-1,-9.002198577E-1,8.925583839E0,3.579331636E0
9.081121170E-1,-1.079784989E0,9.150638580E0,3.938461781E0
9.092837690E-1,-1.165976286E0,9.248801231E0,4.343081951E0
9.122139250E-1,-1.285686255E0,8.959102631E0,4.235342979E0
9.135740760E-1,-1.412579060E0,8.690952301E0,3.933673382E0
9.162576550E-1,-1.405396342E0,8.748413086E0,3.845088005E0
9.174022300E-1,-1.309628367E0,8.927978516E0,3.914519787E0
9.203163450E-1,-1.304839969E0,8.956708908E0,3.926490784E0
9.215045380E-1,-1.355118155E0,8.894459724E0,3.912125587E0
9.244189220E-1,-1.295263171E0,8.920795441E0,3.962403774E0
9.256052300E-1,-1.201889277E0,8.956708908E0,3.976768970E0
9.285295780E-1,-1.204283476E0,8.901641846E0,3.883395195E0
9.297248450E-1,-1.185129881E0,8.887276649E0,3.842693806E0
9.326317320E-1,-9.911994934E-1,9.016563416E0,3.945644379E0
9.339795760E-1,-7.469909191E-1,9.093177795E0,4.015076160E0
9.366685780E-1,-6.584054828E-1,8.990227699E0,3.904942989E0
9.378476530E-1,-6.248866320E-1,8.858546257E0,3.722983599E0
9.405084610E-1,-5.099649429E-1,8.961497307E0,3.703830004E0
9.419339610E-1,-3.926490843E-1,9.124302864E0,3.778050184E0
9.447792680E-1,-4.860229492E-1,9.047688484E0,3.701435804E0
9.460166150E-1,-7.422025204E-1,8.913613319E0,3.653551817E0
9.484791530E-1,-9.528923035E-1,8.923190117E0,3.701435804E0
9.501557680E-1,-1.079784989E0,9.093177795E0,3.809175014E0
9.525437680E-1,-1.278503656E0,9.112331390E0,3.730166197E0
9.544045760E-1,-1.307234168E0,9.006986618E0,3.627215624E0
9.565591920E-1,-1.185129881E0,8.975862503E0,3.699041605E0
9.582359220E-1,-1.010353088E0,8.973467827E0,3.801992416E0
9.606096530E-1,-9.433154464E-1,8.911218643E0,3.782838583E0
9.623368450E-1,-9.911994934E-1,8.796297073E0,3.653551817E0
9.649142300E-1,-1.070208192E0,8.743624687E0,3.588908434E0
9.665984610E-1,-1.156399369E0,8.810662270E0,3.672705412E0
9.688669610E-1,-1.312022567E0,8.892065048E0,3.744531393E0
9.705576150E-1,-1.517923832E0,8.944737434E0,3.739742994E0
9.729886920E-1,-1.695094824E0,8.944737434E0,3.675099611E0
9.748068450E-1,-1.745373011E0,8.944737434E0,3.632004023E0
9.769563840E-1,-1.635239720E0,8.947132111E0,3.605667830E0
9.786770380E-1,-1.441309452E0,8.930372238E0,3.579331636E0
9.812293840E-1,-1.235408068E0,8.918401718E0,3.593696833E0
9.828030760E-1,-1.101332784E0,8.889671326E0,3.627215624E0
9.856001530E-1,-1.082179189E0,8.872911453E0,3.689464808E0
9.868853840E-1,-1.110909581E0,8.846575737E0,3.754108191E0
9.897858860E-1,-1.118092179E0,8.846575737E0,3.866635799E0
9.909616150E-1,-1.084573388E0,8.872911453E0,4.036623955E0
9.938888470E-1,-1.051054597E0,8.868123055E0,4.153939724E0
9.952484610E-1,-1.070208192E0,8.832210541E0,4.175487995E0
9.979444630E-1,-1.113303781E0,8.798690796E0,4.139574528E0
9.991048450E-1,-1.139639974E0,8.803479195E0,4.113238335E0
1.002007115E0,-1.149216771E0,8.853757858E0,4.101267338E0
1.003203615E0,-1.173158884E0,8.918401718E0,4.096478939E0
1.006106461E0,-1.209071875E0,8.954314232E0,4.022258759E0
1.007297576E0,-1.237802267E0,8.975862503E0,3.900154591E0
1.010195345E0,-1.244984865E0,8.973467827E0,3.790021181E0
1.011395961E0,-1.221042871E0,8.980650902E0,3.785232782E0
1.014321270E0,-1.211466074E0,8.932766914E0,3.792415380E0
1.015973884E0,-1.201889277E0,8.892065048E0,3.756502390E0
1.018364117E0,-1.185129881E0,8.935160637E0,3.730166197E0
1.019642461E0,-1.177947283E0,9.004592896E0,3.725377798E0
1.022160538E0,-1.209071875E0,9.026140213E0,3.737348795E0
1.023622922E0,-1.259350061E0,8.963891029E0,3.766079187E0
1.026535886E0,-1.256955862E0,8.875306129E0,3.821146011E0
1.027704115E0,-1.218648672E0,8.856152534E0,3.907337189E0
1.030111461E0,-1.213860273E0,8.863334656E0,3.960009575E0
1.031817230E0,-1.290474772E0,8.844181061E0,3.952826977E0
1.034235845E0,-1.405396342E0,8.856152534E0,3.974374771E0
1.036120807E0,-1.465251446E0,8.889671326E0,4.031835556E0
1.038252576E0,-1.474828243E0,8.887276649E0,4.079719543E0
1.040007384E0,-1.453280449E0,8.839392662E0,4.098873138E0
1.042311999E0,-1.393425345E0,8.798690796E0,4.084507942E0
1.044036730E0,-1.316810966E0,8.808267593E0,4.031835556E0
1.046960040E0,-1.290474772E0,8.808267593E0,3.914519787E0
1.048182961E0,-1.319205165E0,8.815450668E0,3.804386616E0
1.050545230E0,-1.369483352E0,8.877699852E0,3.758896589E0
1.052253576E0,-1.426944256E0,8.968679428E0,3.744531393E0
1.054647576E0,-1.458068848E0,8.961497307E0,3.624821424E0
1.056497884E0,-1.465251446E0,8.923190117E0,3.426102638E0
1.058644384E0,-1.441309452E0,8.987833023E0,3.335123062E0
1.060349153E0,-1.343147159E0,9.160215378E0,3.347094059E0
1.062819615E0,-1.247379065E0,9.224859238E0,3.265691042E0
1.064442730E0,-1.242590666E0,9.083600998E0,3.052607059E0
1.067158999E0,-1.177947283E0,9.052476883E0,3.007117271E0
1.068582999E0,-9.935936928E-1,9.119514465E0,3.148375273E0
1.071451499E0,-1.007958889E0,9.050082207E0,3.354276657E0
1.072638076E0,-1.216254473E0,8.935160637E0,3.344699860E0
1.075576501E0,-1.417367458E0,8.944737434E0,3.383007050E0
1.076921191E0,-1.460463047E0,9.150638580E0,3.600879431E0
1.079603461E0,-1.297657371E0,9.339780807E0,3.797203779E0
1.080759768E0,-1.168370485E0,9.121908188E0,3.746925592E0
1.083682076E0,-1.216254473E0,8.655038834E0,3.653551817E0
1.084875499E0,-1.154005170E0,8.568847656E0,3.964797974E0
1.087799155E0,-9.528923035E-1,8.848969460E0,4.434061527E0
1.088977961E0,-1.211466074E0,8.808267593E0,4.378994942E0
1.091884922E0,-1.795651317E0,8.650250435E0,4.132391930E0
1.093072576E0,-1.778891921E0,8.983044624E0,4.285621166E0
1.096004116E0,-1.304839969E0,9.380482674E0,4.544194698E0
1.097351461E0,-1.137245774E0,9.160215378E0,4.436455727E0
1.100040462E0,-1.024718285E0,8.822632790E0,4.189853191E0
1.101213076E0,-3.040636182E-1,9.339780807E0,4.575319290E0
1.103841268E0,9.624691010E-1,9.981427193E0,5.063736439E0
1.105281691E0,1.498770237E0,8.690952301E0,3.653551817E0
1.108138730E0,6.631938815E-1,7.754819393E0,2.578555346E0
1.109384115E0,1.843535304E-1,8.841787338E0,2.829946518E0
1.111759076E0,-9.576806799E-3,1.042914295E1,2.779668093E0
1.113491076E0,-1.379060149E0,1.102290440E1,2.240972757E0
1.115892807E0,-2.724601507E0,1.032619190E1,1.204283476E0
1.117764538E0,-2.298433542E0,1.019211674E1,1.529894829E0
1.119907884E0,-7.996633649E-1,1.036449909E1,2.873042107E0
1.121596076E0,3.615244627E-1,9.610325813E0,3.253720045E0
1.123963499E0,1.031900883E0,8.820239067E0,2.829946518E0
1.125700038E0,1.381454349E0,8.722076416E0,2.408566952E0
1.128167422E0,1.034295082E0,8.865729332E0,2.427720547E0
1.129798691E0,1.795651317E-1,8.990227699E0,3.110068083E0
1.132193961E0,-3.256114423E-1,9.263166428E0,4.450820923E0
1.133919768E0,-6.416460276E-1,9.040505409E0,4.651933670E0
1.136337576E0,-1.338358760E0,8.540117264E0,4.347870350E0
1.138269038E0,-1.886630893E0,8.540117264E0,4.417302132E0
1.140330538E0,-2.200271368E0,9.016563416E0,5.106832027E0
1.142021807E0,-2.619256735E0,9.011775017E0,5.528211594E0
1.144491268E0,-2.875436306E0,8.525752068E0,5.389348030E0
1.146122268E0,-2.379836559E0,8.353369713E0,5.137956619E0
1.149006768E0,-1.355118155E0,8.640673637E0,4.977545261E0
1.150226768E0,-4.572925270E-1,8.767566681E0,4.675876141E0
1.153156808E0,1.556231081E-1,8.427590370E0,4.206612587E0
1.154335730E0,4.932055473E-1,8.063671112E0,3.976768970E0
1.157259153E0,3.734954596E-1,8.061277390E0,4.074931145E0
1.158598845E0,-2.705447972E-1,8.465897560E0,4.053383350E0
1.161281922E0,-1.120486379E0,9.186552048E0,3.629609823E0
1.162435076E0,-1.824381709E0,9.904812813E0,2.935291290E0
1.165375501E0,-2.209848166E0,1.020887566E1,2.346317768E0
1.166547922E0,-2.142810583E0,9.979032516E0,2.171540976E0
1.169456807E0,-1.561019540E0,9.507374763E0,2.437297344E0
1.170653268E0,-6.919242740E-1,9.117119789E0,2.851494312E0
1.173558153E0,9.337386489E-2,8.844181061E0,3.062183857E0
1.174744691E0,5.961562395E-1,8.710105896E0,3.105279684E0
1.177683962E0,7.709329724E-1,8.789113998E0,3.392583847E0
1.179055230E0,6.033388376E-1,8.978256226E0,4.048594952E0
1.181702961E0,1.723825186E-1,9.047688484E0,4.776432514E0
1.182855807E0,-3.064578176E-1,8.908824921E0,5.212177277E0
1.185518268E0,-6.320692301E-1,8.726864815E0,5.248090267E0
1.186963999E0,-7.876923680E-1,8.717288017E0,5.068524837E0
1.189841653E0,-8.212111592E-1,8.839392662E0,4.869806290E0
1.191054768E0,-7.350199223E-1,8.887276649E0,4.745307922E0
1.193439807E0,-7.158663273E-1,8.798690796E0,4.783615112E0
1.195197768E0,-7.805097699E-1,8.743624687E0,4.759673119E0
1.197573307E0,-8.259995580E-1,8.880094528E0,4.580107689E0
1.199441884E0,-7.230489254E-1,9.157821655E0,4.271255970E0
1.201594884E0,-5.315127969E-1,9.320627213E0,3.921702385E0
1.203355191E0,-3.950432837E-1,9.236829758E0,3.632004023E0
1.205672268E0,-3.663128614E-1,8.997409821E0,3.435679436E0
1.207397153E0,-4.213795066E-1,8.841787338E0,3.299209833E0
1.209973076E0,-5.458779931E-1,8.865729332E0,3.124433279E0
1.211494461E0,-7.350199223E-1,8.961497307E0,2.863465309E0
1.213854653E0,-1.034295082E0,9.071630478E0,2.671929121E0
1.215588191E0,-1.472434044E0,9.193734169E0,2.722207308E0
1.218013191E0,-2.006340981E0,9.282320023E0,2.944868088E0
1.219877614E0,-2.530671120E0,9.284713745E0,3.174711466E0
1.222015191E0,-2.851494312E0,9.186552048E0,3.311181068E0
1.223763730E0,-2.808398485E0,9.081207275E0,3.394978046E0
1.226167768E0,-2.387019157E0,9.014169693E0,3.507505417E0
1.227814499E0,-1.747767210E0,8.906430244E0,3.696647406E0
1.230501653E0,-1.137245774E0,8.693346024E0,3.991134167E0
1.231906230E0,-7.278373241E-1,8.389283180E0,4.362235546E0
1.234838000E0,-5.817909837E-1,8.140285492E0,4.692635536E0
1.236007807E0,-6.775590777E-1,8.128314972E0,4.845864296E0
1.238941808E0,-9.744400978E-1,8.370129585E0,4.797980309E0
1.240302653E0,-1.403002143E0,8.714894295E0,4.625597477E0
1.242992345E0,-1.841141105E0,8.985439301E0,4.412513733E0
1.244145230E0,-2.157175779E0,9.093177795E0,4.182670593E0
1.247065845E0,-2.248155355E0,9.107542992E0,3.931279182E0
1.248238499E0,-2.018311977E0,9.090784073E0,3.653551817E0
1.251174808E0,-1.149216771E0,9.038111687E0,3.265691042E0
1.252348961E0,-5.195417404E-1,9.016563416E0,3.114856482E0
1.255274845E0,-1.532289088E-1,9.035717010E0,3.040636063E0
1.256451884E0,-1.651999205E-1,9.085995674E0,3.019088268E0
1.259381269E0,-4.357447028E-1,9.141061783E0,3.081337690E0
1.260731499E0,-7.398083210E-1,9.212887764E0,3.236960649E0
1.263416076E0,-9.097966552E-1,9.306262016E0,3.442862034E0
1.264559230E0,-9.265560508E-1,9.351752281E0,3.564966440E0
1.267244114E0,-8.164227605E-1,9.275136948E0,3.612850428E0
1.268765307E0,-6.248866320E-1,9.129091263E0,3.751713991E0
1.271594846E0,-4.548983276E-1,8.947132111E0,4.041412354E0
1.272799345E0,-4.022258818E-1,8.755595207E0,4.367023945E0
1.275176037E0,-4.860229492E-1,8.645462036E0,4.599261284E0
1.276906691E0,-6.440402865E-1,8.674192429E0,4.759673119E0
1.279282807E0,-8.523358107E-1,8.791508675E0,4.946420670E0
1.281171384E0,-1.094150186E0,8.841787338E0,5.169081688E0
1.283334537E0,-1.278503656E0,8.734047890E0,5.336675644E0
1.285024422E0,-1.278503656E0,8.559270859E0,5.394136429E0
1.287402191E0,-1.043871999E0,8.453926086E0,5.346252441E0
1.289223922E0,-6.655880809E-1,8.453926086E0,5.193023682E0
1.292019308E0,-3.280056417E-1,8.492233276E0,4.910507679E0
1.293352307E0,-2.011129409E-1,8.528146744E0,4.525041103E0
1.295589268E0,-3.519476354E-1,8.611943245E0,4.153939724E0
1.297434807E0,-7.158663273E-1,8.755595207E0,3.885789394E0
1.299823461E0,-1.146822572E0,8.932766914E0,3.687070608E0
1.301604153E0,-1.491587639E0,9.117119789E0,3.495534420E0
1.303744922E0,-1.666364431E0,9.287108421E0,3.236960649E0
1.305440037E0,-1.640028119E0,9.378087997E0,2.961627483E0
1.308012307E0,-1.422155857E0,9.311050415E0,2.817975283E0
1.309555653E0,-8.690952063E-1,9.004592896E0,3.035847664E0
1.312229999E0,-5.578489900E-1,8.836998940E0,3.275267839E0
1.313630461E0,-4.022258818E-1,8.779537201E0,3.404554844E0
1.316537308E0,-4.118026793E-1,8.865729332E0,3.447650433E0
1.317740807E0,-5.578489900E-1,9.023746490E0,3.550601006E0
1.320640462E0,-7.757213712E-1,9.124302864E0,3.773261786E0
1.322086845E0,-9.744400978E-1,9.093177795E0,4.031835556E0
1.324693038E0,-1.034295082E0,8.956708908E0,4.228160381E0
1.325875691E0,-9.145850539E-1,8.872911453E0,4.376600742E0
1.328761000E0,-6.799532771E-1,8.892065048E0,4.513070107E0
1.329959268E0,-4.477157295E-1,8.892065048E0,4.592078686E0
1.332863038E0,-3.016694188E-1,8.844181061E0,4.649539471E0
1.334098153E0,-2.394201756E-1,8.805873871E0,4.721365929E0
1.336965577E0,-2.418143749E-1,8.836998940E0,4.807557106E0
1.338184384E0,-2.705447972E-1,8.906430244E0,4.841075897E0
1.341068692E0,-2.537853718E-1,8.956708908E0,4.716577530E0
1.342505653E0,-1.628057212E-1,9.009381294E0,4.484339714E0
1.345105000E0,-4.788403213E-2,9.050082207E0,4.273650169E0
1.346293845E0,4.309562966E-2,8.999804497E0,4.139574528E0
1.348920422E0,5.506663769E-2,8.899248123E0,4.096478939E0
1.350426768E0,-5.985504389E-2,8.877699852E0,4.034229755E0
1.353225653E0,-3.232172430E-1,8.983044624E0,3.866635799E0
1.354510845E0,-6.919242740E-1,9.167398453E0,3.648763418E0
1.356863576E0,-1.029506683E0,9.287108421E0,3.481169224E0
1.358599768E0,-1.249773264E0,9.303867340E0,3.481169224E0
1.361002691E0,-1.331176162E0,9.220070839E0,3.615244627E0
1.362869230E0,-1.256955862E0,9.059659004E0,3.715801001E0
1.365022768E0,-1.031900883E0,8.942343712E0,3.761290789E0
1.366689653E0,-7.134721279E-1,8.906430244E0,3.806780815E0
1.369071345E0,-3.351882398E-1,8.870517731E0,3.952826977E0
1.370861307E0,-2.777273953E-1,8.784325600E0,4.079719543E0
1.373396422E0,-3.782838583E-1,8.693346024E0,4.189853191E0
1.374910307E0,-6.248866320E-1,8.729259491E0,4.321534157E0
1.377457922E0,-9.289502501E-1,8.834604263E0,4.393360138E0
1.379043999E0,-1.185129881E0,8.947132111E0,4.364629745E0
1.381428999E0,-1.314416766E0,9.018958092E0,4.299986362E0
1.383311076E0,-1.240196466E0,9.011775017E0,4.273650169E0
1.385457653E0,-1.015141487E0,8.959102631E0,4.338293552E0
1.387266384E0,-7.158663273E-1,8.858546257E0,4.376600742E0
1.389617499E0,-4.309563041E-1,8.779537201E0,4.271255970E0
1.391265499E0,-2.394201756E-1,8.815450668E0,4.096478939E0
1.394060422E0,-1.867477298E-1,8.901641846E0,3.900154591E0
1.395344268E0,-2.777273953E-1,9.006986618E0,3.792415380E0
1.398222538E0,-4.836287498E-1,9.112331390E0,3.799597979E0
1.399464037E0,-7.398083210E-1,9.205705643E0,3.790021181E0
1.402326154E0,-9.792284966E-1,9.299078941E0,3.725377798E0
1.403845845E0,-1.079784989E0,9.330204010E0,3.608062029E0
1.406374192E0,-9.528923035E-1,9.246406555E0,3.485957623E0
1.407614653E0,-6.967126727E-1,9.081207275E0,3.421314240E0
1.410443038E0,-4.405331016E-1,8.894459724E0,3.368641853E0
1.411681384E0,-3.327940404E-1,8.805873871E0,3.354276657E0
1.414546577E0,-4.716577232E-1,8.868123055E0,3.411737442E0
1.415946268E0,-8.236053586E-1,9.030928612E0,3.529053211E0
1.418649769E0,-1.237802267E0,9.208099365E0,3.696647406E0
1.419950614E0,-1.503558636E0,9.258378029E0,3.871424198E0
1.422753192E0,-1.460463047E0,9.138668060E0,4.039018154E0
1.424178807E0,-8.834604025E-1,8.779537201E0,4.247313976E0
1.426790153E0,-4.261679053E-1,8.544905663E0,4.259284973E0
1.427990114E0,-1.795651317E-1,8.487444878E0,4.209006786E0
1.430676037E0,-2.274491638E-1,8.616731644E0,4.161122322E0
1.432081114E0,-5.243301988E-1,8.880094528E0,4.197035789E0
1.434906691E0,-9.169792533E-1,9.129091263E0,4.326322556E0
1.436280422E0,-1.185129881E0,9.179368973E0,4.429273129E0
1.438562230E0,-1.175553083E0,9.081207275E0,4.455609322E0
1.440268730E0,-8.499416113E-1,8.901641846E0,4.390965939E0
1.442722999E0,-3.615244627E-1,8.760383606E0,4.264073372E0
1.444586230E0,4.070143029E-2,8.738836288E0,4.125209332E0
1.446702922E0,1.987187415E-1,8.789113998E0,3.888183594E0
1.448391422E0,1.029506698E-1,8.901641846E0,3.596091032E0
1.450753191E0,-1.556231081E-1,9.059659004E0,3.383007050E0
1.452487999E0,-4.548983276E-1,9.227252960E0,3.311181068E0
1.455085884E0,-7.589619160E-1,9.344569206E0,3.356670856E0
1.456586114E0,-1.043871999E0,9.339780807E0,3.394978046E0
1.458984345E0,-1.259350061E0,9.255983353E0,3.435679436E0
1.460717153E0,-1.376665950E0,9.179368973E0,3.548206806E0
1.463109960E0,-1.338358760E0,9.148244858E0,3.746925592E0
1.464968230E0,-1.146822572E0,9.155426979E0,3.955221176E0
1.467125499E0,-8.523358107E-1,9.112331390E0,4.050989151E0
1.468858230E0,-4.716577232E-1,8.992621422E0,4.058171749E0
1.471420384E0,-9.337386489E-2,8.815450668E0,4.094084740E0
1.473014730E0,1.532289088E-1,8.645462036E0,4.209006786E0
1.475627499E0,1.268926859E-1,8.583212852E0,4.395754337E0
1.477027691E0,-1.675941199E-1,8.640673637E0,4.529829502E0
1.479903230E0,-6.129156351E-1,8.760383606E0,4.546588898E0
1.481209191E0,-1.067813993E0,8.906430244E0,4.525041103E0
1.484006538E0,-1.453280449E0,9.050082207E0,4.520252705E0
1.485513537E0,-1.410184860E0,8.995016098E0,4.472368717E0
1.488062230E0,-1.177947283E0,8.815450668E0,4.316745758E0
1.489457576E0,-8.738836050E-1,8.638279915E0,4.089296341E0
1.492130884E0,-6.368576288E-1,8.599972725E0,3.897760391E0
1.493347114E0,-5.698199868E-1,8.714894295E0,3.768473387E0
1.496234307E0,-6.775590777E-1,8.887276649E0,3.663128614E0
1.497578960E0,-8.379706144E-1,9.047688484E0,3.598485231E0
1.500337769E0,-9.457096457E-1,9.150638580E0,3.584120035E0
1.501593268E0,-9.864110947E-1,9.172186852E0,3.610456228E0
1.504441307E0,-9.648633003E-1,9.102754593E0,3.610456228E0
1.505913537E0,-8.978256583E-1,9.023746490E0,3.555389643E0
1.508484307E0,-8.331822157E-1,9.004592896E0,3.485957623E0
1.509697576E0,-8.140285611E-1,9.028534889E0,3.426102638E0
1.512314499E0,-8.595184088E-1,9.088389397E0,3.409343243E0
1.513778268E0,-8.738836050E-1,9.167398453E0,3.402160645E0
1.516656845E0,-7.900865674E-1,9.246406555E0,3.378218651E0
1.517879383E0,-6.224924326E-1,9.267954826E0,3.339911461E0
1.520273730E0,-4.189853072E-1,9.200917244E0,3.335123062E0
1.521979230E0,-2.849099934E-1,9.126696587E0,3.406949043E0
1.524376576E0,-3.303998411E-1,9.064447403E0,3.485957623E0
1.526260883E0,-5.315127969E-1,9.006986618E0,3.521870613E0
1.528397383E0,-8.020575643E-1,8.990227699E0,3.562572241E0
1.530094999E0,-1.060631394E0,9.021351814E0,3.648763418E0
1.532476845E0,-1.297657371E0,9.085995674E0,3.782838583E0
1.534249499E0,-1.474828243E0,9.117119789E0,3.914519787E0
1.537084268E0,-1.510741234E0,9.064447403E0,4.012681961E0
1.538465768E0,-1.395819545E0,8.966285706E0,4.158728123E0
1.540750345E0,-1.199495077E0,8.865729332E0,4.335899353E0
1.542515383E0,-9.193734527E-1,8.712499619E0,4.508281708E0
1.544851153E0,-7.685387731E-1,8.633491516E0,4.529829502E0
1.547326884E0,-6.823474765E-1,8.623914719E0,4.544194698E0
1.548828653E0,-7.422025204E-1,8.657433510E0,4.580107689E0
1.550640883E0,-9.385270476E-1,8.669404030E0,4.572925091E0
1.553246499E0,-1.154005170E0,8.693346024E0,4.491522312E0
1.554661691E0,-1.259350061E0,8.781931877E0,4.374206543E0
1.557314768E0,-1.218648672E0,8.904036522E0,4.209006786E0
1.558723499E0,-1.096544385E0,8.978256226E0,3.976768970E0
1.561607538E0,-9.409212470E-1,8.978256226E0,3.708618402E0
1.562929191E0,-7.852981687E-1,8.992621422E0,3.471592426E0
1.565711691E0,-6.679822803E-1,9.050082207E0,3.289633036E0
1.567107576E0,-6.129156351E-1,9.076418877E0,3.138798475E0
1.569764807E0,-6.464344859E-1,9.069235802E0,3.047818661E0
1.570974883E0,-7.541735172E-1,9.083600998E0,3.031059265E0
1.573834076E0,-8.738836050E-1,9.126696587E0,3.076549292E0
1.575108422E0,-9.433154464E-1,9.129091263E0,3.167528868E0
1.577937153E0,-9.409212470E-1,9.069235802E0,3.284844637E0
1.579285537E0,-8.762778044E-1,9.021351814E0,3.433285236E0
1.582040153E0,-7.948749661E-1,8.995016098E0,3.567360640E0
1.583283845E0,-7.134721279E-1,8.954314232E0,3.636792421E0
1.586143114E0,-6.224924326E-1,8.877699852E0,3.691859007E0
1.587650845E0,-5.602431893E-1,8.813055992E0,3.801992416E0
1.590179961E0,-6.320692301E-1,8.786720276E0,3.950432777E0
1.591384422E0,-8.331822157E-1,8.748413086E0,4.070142746E0
1.594047076E0,-1.034295082E0,8.722076416E0,4.137180328E0
1.595475576E0,-1.168370485E0,8.765172005E0,4.218583584E0
1.598287345E0,-1.233013868E0,8.820239067E0,4.323928356E0
1.599633653E0,-1.247379065E0,8.822632790E0,4.386177540E0
1.602013230E0,-1.132457376E0,8.779537201E0,4.347870350E0
1.603864191E0,-9.552865028E-1,8.791508675E0,4.256890774E0
1.606091076E0,-7.900865674E-1,8.836998940E0,4.170699596E0
1.607953768E0,-7.062895298E-1,8.875306129E0,4.055777550E0
1.610086730E0,-7.326257229E-1,8.913613319E0,3.957615376E0
1.611877883E0,-8.044517636E-1,8.956708908E0,3.907337189E0
1.614166845E0,-8.403648138E-1,8.983044624E0,3.900154591E0
1.615929806E0,-8.212111592E-1,8.975862503E0,3.926490784E0
1.618375845E0,-7.709329724E-1,8.949525833E0,3.928884983E0
1.620017806E0,-7.015010715E-1,8.975862503E0,3.885789394E0
1.622659383E0,-6.105214357E-1,9.045293808E0,3.823540211E0
1.624198037E0,-5.195417404E-1,9.095572472E0,3.739742994E0
1.626548383E0,-4.716577232E-1,9.117119789E0,3.689464808E0
1.628388806E0,-4.740519226E-1,9.097966194E0,3.660734415E0
1.630518806E0,-4.955997467E-1,9.071630478E0,3.610456228E0
1.632203268E0,-4.884171486E-1,9.030928612E0,3.538630009E0
1.634761460E0,-4.333505034E-1,8.990227699E0,3.488351822E0
1.636323037E0,-4.237737060E-1,9.006986618E0,3.514688015E0
1.639191076E0,-5.386953950E-1,9.052476883E0,3.548206806E0
1.640789114E0,-7.350199223E-1,9.109937668E0,3.560178041E0
1.643294499E0,-8.882488012E-1,9.172186852E0,3.588908434E0
1.644577806E0,-9.385270476E-1,9.205705643E0,3.627215624E0
1.647397537E0,-9.002198577E-1,9.174580574E0,3.687070608E0
1.648787922E0,-7.852981687E-1,9.040505409E0,3.708618402E0
1.651444383E0,-6.177040339E-1,8.906430244E0,3.718195200E0
1.652814614E0,-4.884171486E-1,8.863334656E0,3.758896589E0
1.655512191E0,-4.692635238E-1,8.899248123E0,3.797203779E0
1.656721499E0,-5.674257874E-1,8.980650902E0,3.821146011E0
1.659614883E0,-7.254431248E-1,9.062053680E0,3.811569214E0
1.660856576E0,-8.547300100E-1,9.148244858E0,3.778050184E0
1.663717537E0,-8.283938169E-1,9.133879662E0,3.778050184E0
1.665000960E0,-7.829039693E-1,9.071630478E0,3.766079187E0
1.667820576E0,-8.068459630E-1,9.018958092E0,3.744531393E0
1.669371230E0,-8.978256583E-1,9.021351814E0,3.689464808E0
1.671857999E0,-9.864110947E-1,9.102754593E0,3.629609823E0
1.673284422E0,-1.024718285E0,9.184157372E0,3.617638826E0
1.675748999E0,-1.012747288E0,9.203310966E0,3.658340216E0
1.677273114E0,-9.648633003E-1,9.150638580E0,3.727771997E0
1.679989730E0,-8.762778044E-1,9.040505409E0,3.766079187E0
1.681488537E0,-7.781155705E-1,8.942343712E0,3.804386616E0
1.683700306E0,-7.422025204E-1,8.884882927E0,3.881000996E0
1.685648230E0,-8.188169599E-1,8.882488251E0,3.964797974E0
1.687830806E0,-1.000776291E0,8.932766914E0,4.034229755E0
1.689710576E0,-1.192312479E0,8.992621422E0,4.077325344E0
1.691776730E0,-1.280897856E0,9.016563416E0,4.113238335E0
1.693530999E0,-1.235408068E0,8.975862503E0,4.165910721E0
1.696007229E0,-1.103726983E0,8.894459724E0,4.216189384E0
1.697738999E0,-9.481038451E-1,8.815450668E0,4.223371983E0
1.700158922E0,-8.068459630E-1,8.772355080E0,4.170699596E0
1.701713653E0,-7.158663273E-1,8.789113998E0,4.094084740E0
1.704066345E0,-7.015010715E-1,8.865729332E0,4.036623955E0
1.706023268E0,-7.493851185E-1,8.966285706E0,3.964797974E0
1.708291114E0,-8.212111592E-1,9.052476883E0,3.849876404E0
1.710041306E0,-8.331822157E-1,9.088389397E0,3.689464808E0
1.712193268E0,-7.493851185E-1,9.107542992E0,3.550601006E0
1.713888153E0,-6.536170840E-1,9.105149269E0,3.462015629E0
1.716499499E0,-6.081272364E-1,9.093177795E0,3.390189648E0
1.717965999E0,-6.224924326E-1,9.114726067E0,3.318363667E0
1.720686576E0,-6.560112834E-1,9.220070839E0,3.232172251E0
1.722085653E0,-6.512228847E-1,9.277531624E0,3.213018656E0
1.724978614E0,-6.129156351E-1,9.272743225E0,3.234566450E0
1.726229345E0,-5.410895944E-1,9.232041359E0,3.277662039E0
1.729082345E0,-4.501099288E-1,9.174580574E0,3.351882458E0
1.730505768E0,-3.782838583E-1,9.109937668E0,3.452438831E0
1.733138883E0,-3.782838583E-1,9.052476883E0,3.593696833E0
1.734326076E0,-4.764461517E-1,9.016563416E0,3.766079187E0
1.737207345E0,-6.033388376E-1,9.023746490E0,3.921702385E0
1.738487383E0,-6.943184733E-1,9.038111687E0,4.053383350E0
1.741310960E0,-7.302315235E-1,9.004592896E0,4.168305397E0
1.742511153E0,-7.398083210E-1,8.959102631E0,4.295197964E0
1.745414191E0,-7.374141216E-1,8.908824921E0,4.407725334E0
1.746625229E0,-7.230489254E-1,8.858546257E0,4.455609322E0
1.749517383E0,-6.919242740E-1,8.829815865E0,4.484339714E0
1.750889729E0,-6.440402865E-1,8.834604263E0,4.510675907E0
1.753560729E0,-6.057330370E-1,8.844181061E0,4.534617901E0
1.754797922E0,-5.961562395E-1,8.834604263E0,4.539406300E0
1.757395499E0,-5.937620401E-1,8.825027466E0,4.505887508E0
1.758923806E0,-5.698199868E-1,8.846575737E0,4.460397720E0
1.761732344E0,-5.554547906E-1,8.889671326E0,4.417302132E0
1.762965153E0,-5.722141862E-1,8.911218643E0,4.331110954E0
1.765346076E0,-5.865794420E-1,8.911218643E0,4.199429989E0
1.767047729E0,-5.602431893E-1,8.937555313E0,4.067748547E0
1.769488076E0,-4.955997467E-1,8.992621422E0,3.945644379E0
1.771429537E0,-4.261679053E-1,9.030928612E0,3.840299606E0
1.773513768E0,-3.926490843E-1,9.030928612E0,3.758896589E0
1.775182114E0,-3.806780577E-1,9.018958092E0,3.701435804E0
1.777530922E0,-3.854664862E-1,9.021351814E0,3.682282209E0
1.779311883E0,-4.070142806E-1,9.021351814E0,3.691859007E0
1.782155267E0,-4.572925270E-1,8.999804497E0,3.751713991E0
1.783378076E0,-4.979939461E-1,9.004592896E0,3.809175014E0
1.785772729E0,-5.291185975E-1,9.009381294E0,3.859453201E0
1.787674691E0,-5.099649429E-1,8.992621422E0,3.900154591E0
1.789944229E0,-4.237737060E-1,8.949525833E0,3.983951569E0
1.791815614E0,-3.088520169E-1,8.904036522E0,4.096478939E0
1.793876268E0,-2.346317619E-1,8.856152534E0,4.213795185E0
1.795594383E0,-2.106897533E-1,8.793902397E0,4.288015366E0
1.798031460E0,-2.154781520E-1,8.757989883E0,4.345476151E0
1.799754537E0,-2.537853718E-1,8.779537201E0,4.436455727E0
1.802402460E0,-3.423708379E-1,8.820239067E0,4.527435303E0
1.803768922E0,-4.381389022E-1,8.844181061E0,4.568136692E0
1.806676383E0,-4.596867263E-1,8.844181061E0,4.556165695E0
1.807885537E0,-3.878606856E-1,8.832210541E0,4.517858505E0
1.810779190E0,-2.777273953E-1,8.829815865E0,4.503493309E0
1.812157883E0,-1.699883193E-1,8.810662270E0,4.455609322E0
1.814828229E0,-1.053448766E-1,8.796297073E0,4.371812344E0
1.815999383E0,-9.816227108E-2,8.805873871E0,4.295197964E0
1.818898152E0,-1.436520964E-1,8.858546257E0,4.232948780E0
1.820108729E0,-2.513911724E-1,8.932766914E0,4.197035789E0
1.823001690E0,-3.926490843E-1,8.980650902E0,4.151545525E0
1.824167152E0,-5.027823448E-1,9.016563416E0,4.103661537E0
1.827083691E0,-5.339069963E-1,9.038111687E0,4.072536945E0
1.828311845E0,-4.884171486E-1,9.028534889E0,4.058171749E0
1.831207190E0,-3.926490843E-1,8.990227699E0,4.065354347E0
1.832621845E0,-2.849099934E-1,8.954314232E0,4.065354347E0
1.835242767E0,-1.987187415E-1,8.942343712E0,4.041412354E0
1.836424152E0,-1.556231081E-1,8.937555313E0,4.027047157E0
1.839072845E0,-1.771709323E-1,8.949525833E0,4.065354347E0
1.840531883E0,-2.561795712E-1,8.980650902E0,4.125209332E0
1.843391999E0,-3.711012602E-1,8.983044624E0,4.158728123E0
1.844706537E0,-4.525041282E-1,8.966285706E0,4.151545525E0
1.847048652E0,-4.740519226E-1,8.978256226E0,4.141968727E0
1.848764422E0,-4.668693244E-1,8.995016098E0,4.153939724E0
1.851146806E0,-4.548983276E-1,8.983044624E0,4.161122322E0
1.852999037E0,-4.046200812E-1,8.951920509E0,4.134786129E0
1.855170883E0,-3.184288144E-1,8.935160637E0,4.122815132E0
1.856850152E0,-2.657563984E-1,8.947132111E0,4.134786129E0
1.859211499E0,-2.609679997E-1,8.956708908E0,4.149151325E0
1.860944229E0,-2.825157940E-1,8.959102631E0,4.158728123E0
1.863488114E0,-2.896983922E-1,8.956708908E0,4.165910721E0
1.865048729E0,-2.944868207E-1,8.975862503E0,4.180276394E0
1.867481191E0,-2.992752194E-1,8.995016098E0,4.201824188E0
1.869347576E0,-2.825157940E-1,8.987833023E0,4.220977783E0
1.871781345E0,-2.370259613E-1,8.973467827E0,4.232948780E0
1.873875114E0,-1.843535304E-1,8.951920509E0,4.232948780E0
1.875640922E0,-1.364694983E-1,8.942343712E0,4.235342979E0
1.877487999E0,-1.221042871E-1,8.939949036E0,4.247313976E0
1.879761806E0,-1.484405100E-1,8.944737434E0,4.268861771E0
1.881357268E0,-1.963245422E-1,8.963891029E0,4.292803764E0
1.884207845E0,-2.322375625E-1,8.973467827E0,4.295197964E0
1.885572037E0,-2.513911724E-1,8.963891029E0,4.311957359E0
1.888347959E0,-2.466027737E-1,8.944737434E0,4.338293552E0
1.889613460E0,-1.987187415E-1,8.916007042E0,4.359841347E0
1.892449767E0,-1.364694983E-1,8.887276649E0,4.357447147E0
1.893847152E0,-8.858546615E-2,8.858546257E0,4.328716755E0
1.896493844E0,-7.900865376E-2,8.848969460E0,4.311957359E0
1.897693076E0,-1.125274822E-1,8.870517731E0,4.309563160E0
1.900561459E0,-2.154781520E-1,8.896853447E0,4.304774761E0
1.901872652E0,-2.825157940E-1,8.899248123E0,4.295197964E0
1.904663229E0,-3.160346150E-1,8.894459724E0,4.290409565E0
1.906044883E0,-3.160346150E-1,8.892065048E0,4.307168961E0
1.908765036E0,-2.825157940E-1,8.877699852E0,4.335899353E0
1.910129114E0,-2.370259613E-1,8.848969460E0,4.338293552E0
1.912867036E0,-1.867477298E-1,8.822632790E0,4.321534157E0
1.914259345E0,-1.460463107E-1,8.813055992E0,4.319139957E0
1.916901613E0,-1.173158810E-1,8.815450668E0,4.319139957E0
1.918083075E0,-1.197100878E-1,8.822632790E0,4.314351559E0
1.920753575E0,-1.484405100E-1,8.822632790E0,4.295197964E0
1.922194114E0,-1.795651317E-1,8.827422142E0,4.264073372E0
1.925024960E0,-2.250549644E-1,8.848969460E0,4.268861771E0
1.926293152E0,-2.705447972E-1,8.865729332E0,4.295197964E0
1.928664191E0,-2.992752194E-1,8.870517731E0,4.304774761E0
1.930368345E0,-2.896983922E-1,8.863334656E0,4.302380562E0
1.932790460E0,-2.466027737E-1,8.848969460E0,4.302380562E0
1.934649306E0,-1.987187415E-1,8.844181061E0,4.309563160E0
1.936803652E0,-1.628057212E-1,8.832210541E0,4.321534157E0
1.938508075E0,-1.436520964E-1,8.820239067E0,4.343081951E0
1.940886460E0,-1.197100878E-1,8.832210541E0,4.359841347E0
1.942636575E0,-9.816227108E-2,8.851364136E0,4.386177540E0
1.945284152E0,-1.029506698E-1,8.853757858E0,4.422090530E0
1.946845383E0,-1.125274822E-1,8.841787338E0,4.443638325E0
1.949100037E0,-9.097966552E-2,8.829815865E0,4.469974518E0
1.950830268E0,-4.548983276E-2,8.834604263E0,4.477157116E0
1.953328191E0,-2.394201607E-2,8.832210541E0,4.455609322E0
1.955149999E0,-4.070143029E-2,8.829815865E0,4.438849926E0
1.957702422E0,-7.661445439E-2,8.848969460E0,4.422090530E0
1.959092114E0,-1.029506698E-1,8.884882927E0,4.393360138E0
1.961683845E0,-1.197100878E-1,8.935160637E0,4.335899353E0
1.963059306E0,-1.101332754E-1,8.956708908E0,4.304774761E0
1.965752768E0,-1.005564705E-1,8.978256226E0,4.290409565E0
1.967123537E0,-6.943184882E-2,8.973467827E0,4.264073372E0
1.970007536E0,-1.197100803E-2,8.978256226E0,4.232948780E0
1.971333075E0,2.633621916E-2,8.997409821E0,4.204218388E0
1.974109574E0,2.394201700E-3,9.026140213E0,4.194641590E0
1.975567383E0,-3.830722719E-2,9.050082207E0,4.177882195E0
1.978165113E0,-2.873042040E-2,9.040505409E0,4.110844135E0
1.979421960E0,3.591302410E-2,9.006986618E0,4.036623955E0
1.982232228E0,1.125274822E-1,8.985439301E0,3.986345768E0
1.983489806E0,1.532289088E-1,8.968679428E0,3.948038578E0
1.986334690E0,1.364694983E-1,8.983044624E0,3.919308186E0
1.987603999E0,6.703764945E-2,9.033323288E0,3.931279182E0
1.990436997E0,-5.985504389E-2,9.085995674E0,3.969586372E0
1.991698960E0,-2.035071403E-1,9.100360870E0,4.012681961E0
1.994539459E0,-2.920926213E-1,9.062053680E0,4.046200752E0
1.995948768E0,-2.777273953E-1,8.997409821E0,4.084507942E0
1.998580497E0,-1.915361285E-1,8.932766914E0,4.094084740E0
1.999857768E0,-1.149216816E-1,8.860940933E0,4.070142746E0
2.002419845E0,-1.197100878E-1,8.817844391E0,4.082113743E0
2.003992229E0,-2.082955539E-1,8.841787338E0,4.165910721E0
2.006749228E0,-3.471592367E-1,8.913613319E0,4.299986362E0
2.008091960E0,-4.836287498E-1,8.949525833E0,4.417302132E0
2.010357306E0,-5.386953950E-1,8.911218643E0,4.491522312E0
2.012073114E0,-4.836287498E-1,8.848969460E0,4.548983097E0
2.014537152E0,-3.591302633E-1,8.803479195E0,4.596867085E0
2.016504114E0,-1.747767180E-1,8.755595207E0,4.537012100E0
2.018498229E0,-1.053448766E-1,8.769960403E0,4.414907932E0
2.020288768E0,-8.858546615E-2,8.839392662E0,4.290409565E0
2.022567768E0,-1.292868853E-1,8.927978516E0,4.211400986E0
2.024288306E0,-1.795651317E-1,8.973467827E0,4.151545525E0
2.027165613E0,-1.891419291E-1,8.966285706E0,4.096478939E0
2.028379422E0,-2.035071403E-1,8.959102631E0,4.048594952E0
2.030765691E0,-2.896983922E-1,8.966285706E0,4.007893562E0
2.032494652E0,-4.213795066E-1,8.990227699E0,3.967192173E0
2.034917922E0,-5.291185975E-1,9.026140213E0,3.921702385E0
2.036860152E0,-5.554547906E-1,9.076418877E0,3.892971992E0
2.038928306E0,-5.027823448E-1,9.102754593E0,3.883395195E0
2.040656268E0,-3.854664862E-1,9.052476883E0,3.881000996E0
2.043240922E0,-2.298433632E-1,8.935160637E0,3.902548790E0
2.044789037E0,-8.140286058E-2,8.841787338E0,3.969586372E0
2.047404537E0,-9.576806799E-3,8.801085472E0,4.060565948E0
2.048833114E0,-8.619125932E-2,8.789113998E0,4.146757126E0
2.051679151E0,-2.992752194E-1,8.801085472E0,4.235342979E0
2.052958652E0,-5.434837937E-1,8.860940933E0,4.331110954E0
2.055781766E0,-7.182605267E-1,8.911218643E0,4.422090530E0
2.057357345E0,-7.757213712E-1,8.911218643E0,4.469974518E0
2.059833613E0,-7.206547260E-1,8.844181061E0,4.455609322E0
2.061042191E0,-5.865794420E-1,8.765172005E0,4.426878929E0
2.063900728E0,-4.213795066E-1,8.702922821E0,4.395754337E0
2.065421537E0,-2.681505978E-1,8.674192429E0,4.338293552E0
2.068002728E0,-1.915361285E-1,8.714894295E0,4.290409565E0
2.069325998E0,-2.394201756E-1,8.810662270E0,4.247313976E0
2.072104689E0,-3.758896589E-1,8.913613319E0,4.199429989E0
2.073350306E0,-4.955997467E-1,8.968679428E0,4.144362926E0
2.076207074E0,-5.363011956E-1,8.983044624E0,4.050989151E0
2.077707191E0,-5.051765442E-1,8.980650902E0,3.991134167E0
2.080243189E0,-4.668693244E-1,8.985439301E0,3.948038578E0
2.081487614E0,-4.094084799E-1,8.987833023E0,3.890577793E0
2.084083191E0,-3.208230138E-1,8.999804497E0,3.825934410E0
2.085595075E0,-2.226607651E-1,9.030928612E0,3.770867586E0
2.088413536E0,-1.484405100E-1,9.052476883E0,3.744531393E0
2.089781845E0,-1.149216816E-1,9.054870605E0,3.754108191E0
2.092019498E0,-1.340752989E-1,9.062053680E0,3.785232782E0
2.093729306E0,-1.987187415E-1,9.069235802E0,3.816357613E0
2.096219345E0,-3.160346150E-1,9.064447403E0,3.837905407E0
2.098269152E0,-4.405331016E-1,9.059659004E0,3.876212597E0
2.100153691E0,-5.386953950E-1,9.069235802E0,3.945644379E0
2.101917229E0,-5.674257874E-1,9.066842079E0,4.022258759E0
2.104235114E0,-5.123591423E-1,9.028534889E0,4.072536945E0
2.105964037E0,-4.237737060E-1,8.978256226E0,4.106055737E0
2.108415883E0,-3.615244627E-1,8.954314232E0,4.161122322E0
2.110064498E0,-3.423708379E-1,8.951920509E0,4.232948780E0
2.112542422E0,-3.471592367E-1,8.949525833E0,4.271255970E0
2.114156191E0,-3.375824392E-1,8.947132111E0,4.285621166E0
2.116586922E0,-3.256114423E-1,8.949525833E0,4.292803764E0
2.118419498E0,-3.256114423E-1,8.949525833E0,4.302380562E0
2.120593960E0,-3.447650373E-1,8.939949036E0,4.309563160E0
2.122428191E0,-3.591302633E-1,8.913613319E0,4.295197964E0
2.124846075E0,-3.471592367E-1,8.899248123E0,4.276044369E0
2.126403345E0,-3.399766386E-1,8.918401718E0,4.249708176E0
2.129250612E0,-3.567360640E-1,8.949525833E0,4.220977783E0
2.130527037E0,-3.830722570E-1,8.973467827E0,4.168305397E0
2.133352728E0,-3.878606856E-1,8.999804497E0,4.096478939E0
2.134601460E0,-3.591302633E-1,9.018958092E0,4.024652958E0
2.137454882E0,-3.519476354E-1,9.014169693E0,3.971980572E0
2.138914306E0,-3.663128614E-1,8.990227699E0,3.964797974E0
2.141499382E0,-3.591302633E-1,8.961497307E0,3.969586372E0
2.142679345E0,-3.327940404E-1,8.947132111E0,3.971980572E0
2.145547960E0,-3.375824392E-1,8.956708908E0,3.981557369E0
2.146843114E0,-3.878606856E-1,8.983044624E0,3.988739967E0
2.149669381E0,-4.572925270E-1,9.016563416E0,4.005499363E0
2.150875268E0,-4.979939461E-1,9.028534889E0,4.029441357E0
2.153771805E0,-4.788403511E-1,9.030928612E0,4.029441357E0
2.154974806E0,-4.237737060E-1,9.009381294E0,4.017470360E0
2.157874189E0,-3.591302633E-1,8.975862503E0,4.012681961E0
2.159284845E0,-2.896983922E-1,8.942343712E0,4.022258759E0
2.161908728E0,-2.322375625E-1,8.932766914E0,4.039018154E0
2.163144114E0,-2.178723514E-1,8.939949036E0,4.043806553E0
2.165728229E0,-2.849099934E-1,8.939949036E0,4.031835556E0
2.167195960E0,-4.070142806E-1,8.963891029E0,4.043806553E0
2.170077804E0,-5.075707436E-1,8.995016098E0,4.060565948E0
2.171296729E0,-5.506663918E-1,9.006986618E0,4.053383350E0
2.173680575E0,-5.578489900E-1,9.002198219E0,4.029441357E0
2.175380575E0,-5.626373887E-1,8.983044624E0,3.993528366E0
2.177812421E0,-5.650315881E-1,8.985439301E0,3.971980572E0
2.179669498E0,-5.482721925E-1,9.002198219E0,3.962403774E0
2.181822229E0,-5.195417404E-1,8.990227699E0,3.936067581E0
2.183510768E0,-4.932055473E-1,8.985439301E0,3.926490784E0
2.185879998E0,-4.908113480E-1,8.995016098E0,3.955221176E0
2.187621345E0,-5.171475410E-1,9.006986618E0,4.000710964E0
2.190197845E0,-5.626373887E-1,9.014169693E0,4.043806553E0
2.191790806E0,-5.913678408E-1,9.014169693E0,4.053383350E0
2.194100537E0,-5.889736414E-1,9.045293808E0,4.039018154E0
2.195810152E0,-5.602431893E-1,9.102754593E0,4.031835556E0
2.198242729E0,-5.051765442E-1,9.090784073E0,4.012681961E0
2.200138421E0,-4.094084799E-1,9.057265282E0,3.976768970E0
2.202227037E0,-3.208230138E-1,9.026140213E0,3.940855980E0
2.203987998E0,-2.896983922E-1,9.011775017E0,3.919308186E0
2.206520191E0,-3.423708379E-1,9.018958092E0,3.912125587E0
2.208045883E0,-4.477157295E-1,9.052476883E0,3.895366192E0
2.210840037E0,-5.674257874E-1,9.105149269E0,3.873818398E0
2.212136998E0,-6.703764796E-1,9.143456459E0,3.849876404E0
2.215016881E0,-7.326257229E-1,9.150638580E0,3.823540211E0
2.216246498E0,-7.326257229E-1,9.129091263E0,3.823540211E0
2.219119304E0,-6.751648784E-1,9.093177795E0,3.828328609E0
2.220559345E0,-5.770025849E-1,9.030928612E0,3.821146011E0
2.223174266E0,-5.171475410E-1,8.975862503E0,3.811569214E0
2.224355768E0,-5.410895944E-1,8.954314232E0,3.828328609E0
2.227241804E0,-6.296750307E-1,8.968679428E0,3.878606796E0
2.228454460E0,-7.302315235E-1,9.004592896E0,3.945644379E0
2.231343997E0,-8.092401624E-1,9.016563416E0,3.974374771E0
2.232660114E0,-8.571242094E-1,9.021351814E0,3.988739967E0
2.235446881E0,-8.619126081E-1,9.006986618E0,4.012681961E0
2.236655037E0,-8.188169599E-1,8.963891029E0,4.012681961E0
2.239549958E0,-7.398083210E-1,8.916007042E0,4.003105164E0
2.241210344E0,-6.584054828E-1,8.887276649E0,3.976768970E0
2.243592958E0,-6.392518282E-1,8.896853447E0,3.945644379E0
2.244776575E0,-6.895300746E-1,8.913613319E0,3.907337189E0
2.247593075E0,-7.493851185E-1,8.927978516E0,3.866635799E0
2.248876575E0,-7.852981687E-1,8.954314232E0,3.837905407E0
2.251764073E0,-8.188169599E-1,8.963891029E0,3.809175014E0
2.252987575E0,-8.475474119E-1,8.956708908E0,3.775655985E0
2.255365998E0,-8.619126081E-1,8.956708908E0,3.744531393E0
2.257079152E0,-8.547300100E-1,8.956708908E0,3.722983599E0
2.259487306E0,-8.355764151E-1,8.961497307E0,3.706224203E0
2.261380498E0,-8.164227605E-1,8.947132111E0,3.684676409E0
2.263526191E0,-8.044517636E-1,8.935160637E0,3.691859007E0
2.265191344E0,-7.996633649E-1,8.937555313E0,3.734954596E0
2.267571691E0,-8.044517636E-1,8.942343712E0,3.768473387E0
2.269301383E0,-8.164227605E-1,8.916007042E0,3.778050184E0
2.272186573E0,-8.451532125E-1,8.894459724E0,3.813963413E0
2.273479152E0,-8.738836050E-1,8.906430244E0,3.895366192E0
2.275791729E0,-8.738836050E-1,8.927978516E0,3.974374771E0
2.277514768E0,-8.523358107E-1,8.911218643E0,4.003105164E0
2.279909960E0,-7.996633649E-1,8.860940933E0,3.991134167E0
2.281815614E0,-7.469909191E-1,8.836998940E0,3.988739967E0
2.283924498E0,-7.326257229E-1,8.848969460E0,4.003105164E0
2.285593498E0,-7.685387731E-1,8.846575737E0,3.991134167E0
2.288108806E0,-8.212111592E-1,8.858546257E0,3.964797974E0
2.289714152E0,-8.762778044E-1,8.904036522E0,3.938461781E0
2.292433152E0,-9.361328483E-1,8.961497307E0,3.919308186E0
2.293991575E0,-9.696516991E-1,8.983044624E0,3.892971992E0
2.296699035E0,-9.528923035E-1,8.968679428E0,3.845088005E0
2.297908806E0,-8.906430602E-1,8.963891029E0,3.811569214E0
2.300801150E0,-8.283938169E-1,8.968679428E0,3.775655985E0
2.302187691E0,-8.044517636E-1,8.966285706E0,3.739742994E0
2.304852227E0,-7.996633649E-1,8.951920509E0,3.703830004E0
2.306309614E0,-8.020575643E-1,8.954314232E0,3.677493811E0
2.308919458E0,-8.283938169E-1,8.990227699E0,3.670311213E0
2.310190768E0,-8.690952063E-1,9.018958092E0,3.675099611E0
2.313020842E0,-9.050082564E-1,9.016563416E0,3.682282209E0
2.314238691E0,-9.193734527E-1,9.002198219E0,3.701435804E0
2.317122227E0,-8.690952063E-1,8.990227699E0,3.715801001E0
2.318405229E0,-8.212111592E-1,8.968679428E0,3.718195200E0
2.321224765E0,-8.092401624E-1,8.939949036E0,3.744531393E0
2.322859729E0,-8.355764151E-1,8.923190117E0,3.787626982E0
2.325258958E0,-8.667010069E-1,8.923190117E0,3.835511208E0
2.326454921E0,-8.978256583E-1,8.920795441E0,3.878606796E0
2.329280768E0,-9.337386489E-1,8.911218643E0,3.897760391E0
2.330587729E0,-9.672574997E-1,8.901641846E0,3.938461781E0
2.333403921E0,-9.696516991E-1,8.892065048E0,3.995922565E0
2.334644844E0,-9.241618514E-1,8.868123055E0,4.015076160E0
2.337226075E0,-8.619126081E-1,8.851364136E0,4.019864559E0
2.338812614E0,-8.331822157E-1,8.836998940E0,4.019864559E0
2.341188191E0,-8.355764151E-1,8.836998940E0,4.010287762E0
2.343040729E0,-8.355764151E-1,8.856152534E0,3.995922565E0
2.345242691E0,-8.379706144E-1,8.868123055E0,3.962403774E0
2.346848383E0,-8.667010069E-1,8.882488251E0,3.921702385E0
2.349442537E0,-9.050082564E-1,8.894459724E0,3.873818398E0
2.350967152E0,-9.289502501E-1,8.913613319E0,3.837905407E0
2.353482691E0,-9.361328483E-1,8.927978516E0,3.806780815E0
2.355100229E0,-9.361328483E-1,8.942343712E0,3.766079187E0
2.357519421E0,-9.241618514E-1,8.966285706E0,3.715801001E0
2.359190306E0,-8.978256583E-1,8.990227699E0,3.682282209E0
2.361594806E0,-8.690952063E-1,8.990227699E0,3.653551817E0
2.363463229E0,-8.451532125E-1,8.987833023E0,3.629609823E0
2.365626229E0,-8.212111592E-1,8.985439301E0,3.600879431E0
2.367351114E0,-8.068459630E-1,8.995016098E0,3.591302633E0
2.369759344E0,-8.212111592E-1,9.009381294E0,3.632004023E0
2.371465421E0,-8.451532125E-1,9.018958092E0,3.699041605E0
2.374264996E0,-8.523358107E-1,9.028534889E0,3.756502390E0
2.375624575E0,-8.427590132E-1,9.021351814E0,3.801992416E0
2.378367381E0,-8.092401624E-1,8.992621422E0,3.888183594E0
2.379599767E0,-7.709329724E-1,8.978256226E0,3.967192173E0
2.382470150E0,-7.350199223E-1,8.956708908E0,4.000710964E0
2.383910575E0,-7.110779285E-1,8.927978516E0,4.010287762E0
2.386515304E0,-6.991068721E-1,8.927978516E0,4.031835556E0
2.387723152E0,-6.919242740E-1,8.949525833E0,4.060565948E0
2.390581996E0,-7.110779285E-1,8.971074104E0,4.089296341E0
2.391846767E0,-7.278373241E-1,8.966285706E0,4.089296341E0
2.394684034E0,-7.350199223E-1,8.954314232E0,4.065354347E0
2.395900191E0,-7.398083210E-1,8.971074104E0,4.046200752E0
2.398785765E0,-7.565677166E-1,8.985439301E0,4.019864559E0
2.400018960E0,-7.781155705E-1,8.997409821E0,3.976768970E0
2.402888342E0,-7.948749661E-1,9.002198219E0,3.926490784E0
2.404523998E0,-8.068459630E-1,9.004592896E0,3.871424198E0
2.406925457E0,-8.116343617E-1,9.028534889E0,3.833117008E0
2.408161383E0,-7.972691655E-1,9.033323288E0,3.813963413E0
2.410764037E0,-7.685387731E-1,9.014169693E0,3.797203779E0
2.412398575E0,-7.374141216E-1,8.995016098E0,3.799597979E0
2.415082767E0,-7.015010715E-1,8.985439301E0,3.806780815E0
2.416307960E0,-6.871358752E-1,8.978256226E0,3.830722809E0
2.418696883E0,-7.038952708E-1,8.961497307E0,3.871424198E0
2.420433152E0,-7.422025204E-1,8.939949036E0,3.897760391E0
2.422810498E0,-7.757213712E-1,8.937555313E0,3.924096584E0
2.424682191E0,-7.972691655E-1,8.942343712E0,3.955221176E0
2.426859421E0,-8.164227605E-1,8.918401718E0,3.991134167E0
2.428538037E0,-8.212111592E-1,8.892065048E0,4.031835556E0
2.430904075E0,-7.900865674E-1,8.884882927E0,4.065354347E0
2.432609614E0,-7.493851185E-1,8.882488251E0,4.074931145E0
2.435287075E0,-7.206547260E-1,8.863334656E0,4.065354347E0
2.436917652E0,-6.919242740E-1,8.865729332E0,4.065354347E0
2.439255614E0,-6.727706790E-1,8.872911453E0,4.062960148E0
2.441003921E0,-6.847416759E-1,8.872911453E0,4.034229755E0
2.443292152E0,-7.110779285E-1,8.884882927E0,3.995922565E0
2.445376767E0,-7.350199223E-1,8.906430244E0,3.969586372E0
2.447295267E0,-7.685387731E-1,8.939949036E0,3.974374771E0
2.449015883E0,-7.972691655E-1,8.942343712E0,3.964797974E0
2.451436037E0,-7.996633649E-1,8.937555313E0,3.936067581E0
2.453035306E0,-7.829039693E-1,8.947132111E0,3.909731388E0
2.455824306E0,-7.661445141E-1,8.961497307E0,3.907337189E0
2.457434652E0,-7.445967197E-1,8.968679428E0,3.916913986E0
2.460031111E0,-7.230489254E-1,8.975862503E0,3.919308186E0
2.461372114E0,-7.134721279E-1,8.985439301E0,3.907337189E0
2.464132919E0,-7.206547260E-1,8.995016098E0,3.921702385E0
2.465562960E0,-7.350199223E-1,8.999804497E0,3.952826977E0
2.468191380E0,-7.422025204E-1,8.990227699E0,3.971980572E0
2.469408344E0,-7.469909191E-1,8.987833023E0,3.983951569E0
2.472246229E0,-7.517793179E-1,8.997409821E0,4.000710964E0
2.473444883E0,-7.613561153E-1,9.009381294E0,4.027047157E0
2.476359688E0,-7.613561153E-1,9.023746490E0,4.046200752E0
2.477568883E0,-7.565677166E-1,9.026140213E0,4.053383350E0
2.480461688E0,-7.350199223E-1,9.033323288E0,4.053383350E0
2.481734114E0,-6.991068721E-1,9.042900085E0,4.043806553E0
2.484564380E0,-6.775590777E-1,9.030928612E0,4.017470360E0
2.486093844E0,-6.631938815E-1,9.023746490E0,4.015076160E0
2.488604457E0,-6.464344859E-1,9.033323288E0,4.029441357E0
2.490078575E0,-6.392518282E-1,9.030928612E0,4.005499363E0
2.492487229E0,-6.464344859E-1,9.023746490E0,3.967192173E0
2.493914037E0,-6.655880809E-1,9.038111687E0,3.957615376E0
2.496773688E0,-6.943184733E-1,9.057265282E0,3.955221176E0
2.498025190E0,-7.302315235E-1,9.050082207E0,3.916913986E0
2.500535498E0,-7.565677166E-1,9.038111687E0,3.861847401E0
2.502113229E0,-7.709329724E-1,9.059659004E0,3.837905407E0
2.504531921E0,-7.781155705E-1,9.093177795E0,3.828328609E0
2.506381075E0,-7.685387731E-1,9.090784073E0,3.792415380E0
2.508523767E0,-7.374141216E-1,9.066842079E0,3.756502390E0
2.510278729E0,-7.110779285E-1,9.052476883E0,3.744531393E0
2.512732498E0,-7.158663273E-1,9.057265282E0,3.763684988E0
2.514306921E0,-7.206547260E-1,9.050082207E0,3.785232782E0
2.517194111E0,-7.278373241E-1,9.028534889E0,3.797203779E0
2.518409652E0,-7.541735172E-1,9.023746490E0,3.801992416E0
2.520855306E0,-8.116343617E-1,9.033323288E0,3.825934410E0
2.522558921E0,-8.547300100E-1,9.018958092E0,3.857059002E0
2.525406306E0,-8.738836050E-1,8.992621422E0,3.907337189E0
2.526811921E0,-8.690952063E-1,8.975862503E0,3.945644379E0
2.529365267E0,-8.619126081E-1,8.951920509E0,3.957615376E0
2.530662421E0,-8.762778044E-1,8.932766914E0,3.974374771E0
2.533091498E0,-8.930372596E-1,8.908824921E0,4.000710964E0
2.534722075E0,-9.097966552E-1,8.892065048E0,4.046200752E0
2.537442229E0,-9.361328483E-1,8.884882927E0,4.084507942E0
2.538860114E0,-9.720458984E-1,8.884882927E0,4.084507942E0
2.541722842E0,-1.015141487E0,8.899248123E0,4.079719543E0
2.542934460E0,-1.053448796E0,8.913613319E0,4.077325344E0
2.545825226E0,-1.053448796E0,8.899248123E0,4.070142746E0
2.547209690E0,-1.017535686E0,8.884882927E0,4.072536945E0
2.549876534E0,-9.720458984E-1,8.875306129E0,4.065354347E0
2.551219806E0,-9.433154464E-1,8.884882927E0,4.060565948E0
2.553944034E0,-9.313444495E-1,8.901641846E0,4.050989151E0
2.555439690E0,-9.217676520E-1,8.877699852E0,4.003105164E0
2.558045995E0,-9.241618514E-1,8.894459724E0,4.000710964E0
2.559293267E0,-9.385270476E-1,8.932766914E0,4.010287762E0
2.562148841E0,-9.600749016E-1,8.939949036E0,4.017470360E0
2.563367537E0,-9.648633003E-1,8.913613319E0,4.012681961E0
2.566251534E0,-9.552865028E-1,8.892065048E0,3.988739967E0
2.567621806E0,-9.433154464E-1,8.899248123E0,3.976768970E0
2.570287418E0,-9.409212470E-1,8.908824921E0,3.986345768E0
2.571467921E0,-9.409212470E-1,8.892065048E0,4.003105164E0
2.574118921E0,-9.361328483E-1,8.884882927E0,4.015076160E0
2.575657652E0,-9.457096457E-1,8.884882927E0,4.015076160E0
2.578430421E0,-9.720458984E-1,8.889671326E0,3.998316765E0
2.579676229E0,-9.816226959E-1,8.892065048E0,4.000710964E0
2.582053613E0,-9.672574997E-1,8.887276649E0,4.029441357E0
2.583822844E0,-9.552865028E-1,8.880094528E0,4.046200752E0
2.586177806E0,-9.504981041E-1,8.877699852E0,4.043806553E0
2.588043921E0,-9.481038451E-1,8.865729332E0,4.027047157E0
2.590207844E0,-9.409212470E-1,8.863334656E0,4.024652958E0
2.592048883E0,-9.313444495E-1,8.870517731E0,4.053383350E0
2.594262267E0,-9.193734527E-1,8.863334656E0,4.065354347E0
2.596037152E0,-9.193734527E-1,8.853757858E0,4.050989151E0
2.598459229E0,-9.361328483E-1,8.841787338E0,4.034229755E0
2.600306267E0,-9.744400978E-1,8.851364136E0,4.039018154E0
2.602493729E0,-1.005564690E0,8.865729332E0,4.043806553E0
2.604230460E0,-1.015141487E0,8.860940933E0,4.039018154E0
2.606620498E0,-1.027112484E0,8.851364136E0,4.027047157E0
2.608495998E0,-1.041477680E0,8.858546257E0,4.029441357E0
2.610626575E0,-1.041477680E0,8.860940933E0,4.039018154E0
2.612429075E0,-1.022324085E0,8.863334656E0,4.034229755E0
2.614840575E0,-9.959878922E-1,8.853757858E0,3.986345768E0
2.616420498E0,-9.840168953E-1,8.872911453E0,3.981557369E0
2.619232921E0,-9.720458984E-1,8.901641846E0,3.991134167E0
2.620622267E0,-9.768342972E-1,8.918401718E0,3.991134167E0
2.623392341E0,-9.720458984E-1,8.932766914E0,3.969586372E0
2.624613383E0,-9.528923035E-1,8.978256226E0,3.955221176E0
2.627495149E0,-9.504981041E-1,9.052476883E0,3.986345768E0
2.629264613E0,-9.840168953E-1,9.126696587E0,4.060565948E0
2.631539610E0,-1.012747288E0,9.136273384E0,4.108449936E0
2.632716383E0,-9.624691010E-1,9.059659004E0,4.079719543E0
2.635606418E0,-8.020575643E-1,8.920795441E0,3.976768970E0
2.637069883E0,-5.650315881E-1,8.784325600E0,3.840299606E0
2.639708110E0,-3.423708379E-1,8.719682693E0,3.696647406E0
2.640994383E0,-2.777273953E-1,8.755595207E0,3.588908434E0
2.643809649E0,-4.548983276E-1,8.872911453E0,3.548206806E0
2.645024767E0,-8.236053586E-1,9.035717010E0,3.591302633E0
2.647911264E0,-1.247379065E0,9.157821655E0,3.691859007E0
2.649325421E0,-1.549048543E0,9.174580574E0,3.799597979E0
2.651946187E0,-1.580173135E0,9.097966194E0,3.871424198E0
2.653235344E0,-1.343147159E0,8.954314232E0,3.873818398E0
2.655870421E0,-1.017535686E0,8.781931877E0,3.821146011E0
2.657343037E0,-7.852981687E-1,8.662221909E0,3.787626982E0
2.660114533E0,-7.302315235E-1,8.667010307E0,3.852270603E0
2.661339152E0,-8.499416113E-1,8.789113998E0,4.017470360E0
2.663725075E0,-1.074996591E0,8.911218643E0,4.220977783E0
2.665486036E0,-1.256955862E0,8.942343712E0,4.412513733E0
2.667841036E0,-1.264138460E0,8.870517731E0,4.594472885E0
2.669713113E0,-1.110909581E0,8.729259491E0,4.711789131E0
2.671878498E0,-8.978256583E-1,8.626308441E0,4.716577530E0
2.673527960E0,-7.350199223E-1,8.640673637E0,4.577713490E0
2.675946075E0,-6.871358752E-1,8.848969460E0,4.122815132E0
2.677656729E0,-7.254431248E-1,9.009381294E0,3.797203779E0
2.680242998E0,-7.422025204E-1,9.121908188E0,3.548206806E0
2.681779960E0,-7.302315235E-1,9.176975250E0,3.409343243E0
2.684119767E0,-7.924807668E-1,9.191340446E0,3.339911461E0
2.685878267E0,-9.672574997E-1,9.172186852E0,3.296815634E0
2.688278883E0,-1.230619669E0,9.181763649E0,3.282450438E0
2.690136613E0,-1.491587639E0,9.270348549E0,3.299209833E0
2.692279652E0,-1.635239720E0,9.397241592E0,3.342305660E0
2.693958421E0,-1.601720929E0,9.469067574E0,3.404554844E0
2.696515960E0,-1.369483352E0,9.397241592E0,3.452438831E0
2.698102998E0,-9.576807022E-1,9.186552048E0,3.490746021E0
2.700773844E0,-4.764461517E-1,8.935160637E0,3.548206806E0
2.702145460E0,-1.316810995E-1,8.731653214E0,3.660734415E0
2.705049649E0,-7.182604820E-2,8.647856712E0,3.852270603E0
2.706260729E0,-3.471592367E-1,8.700529099E0,4.077325344E0
2.709152187E0,-8.786720037E-1,8.844181061E0,4.297592163E0
2.710579883E0,-1.479616642E0,8.990227699E0,4.455609322E0
2.713207495E0,-1.917755604E0,9.057265282E0,4.546588898E0
2.714395806E0,-2.035071373E0,9.004592896E0,4.584896088E0
2.717273956E0,-1.824381709E0,8.839392662E0,4.568136692E0
2.718498383E0,-1.417367458E0,8.619126320E0,4.462791920E0
2.721376033E0,-1.010353088E0,8.465897560E0,4.290409565E0
2.722725383E0,-7.493851185E-1,8.463502884E0,4.115632534E0
2.725477764E0,-7.086837292E-1,8.626308441E0,3.993528366E0
2.726701767E0,-8.667010069E-1,8.846575737E0,3.900154591E0
2.729579264E0,-1.101332784E0,9.023746490E0,3.821146011E0
2.730960152E0,-1.295263171E0,9.124302864E0,3.725377798E0
2.733620110E0,-1.395819545E0,9.162610054E0,3.627215624E0
2.734800844E0,-1.403002143E0,9.160215378E0,3.533841610E0
2.737552498E0,-1.290474772E0,9.141061783E0,3.375824451E0
2.738932498E0,-1.134851575E0,9.165003777E0,3.270479441E0
2.741789264E0,-9.241618514E-1,9.210494041E0,3.160346270E0
2.742999152E0,-6.607996821E-1,9.229647636E0,3.076549292E0
2.745807383E0,-3.782838583E-1,9.208099365E0,3.016694069E0
2.747140729E0,-1.580173075E-1,9.162610054E0,2.978386879E0
2.749615498E0,-1.077390760E-1,9.119514465E0,2.956839085E0
2.751388460E0,-3.040636182E-1,9.121908188E0,2.973598480E0
2.753536613E0,-7.015010715E-1,9.162610054E0,3.059789658E0
2.755237652E0,-1.161187768E0,9.212887764E0,3.191470861E0
2.757589844E0,-1.546654344E0,9.246406555E0,3.361459255E0
2.759324460E0,-1.754949808E0,9.215282440E0,3.543418407E0
2.762206918E0,-1.769315004E0,9.126696587E0,3.722983599E0
2.763460460E0,-1.623268723E0,8.999804497E0,3.907337189E0
2.765826575E0,-1.395819545E0,8.853757858E0,4.106055737E0
2.767548421E0,-1.189918280E0,8.734047890E0,4.302380562E0
2.769967267E0,-1.070208192E0,8.693346024E0,4.462791920E0
2.771888036E0,-1.048660398E0,8.722076416E0,4.611232281E0
2.774285959E0,-1.094150186E0,8.748413086E0,4.757278919E0
2.775679806E0,-1.134851575E0,8.726864815E0,4.862623692E0
2.778111998E0,-1.134851575E0,8.671798706E0,4.905719280E0
2.779748229E0,-1.096544385E0,8.638279915E0,4.860229492E0
2.782428536E0,-1.048660398E0,8.669404030E0,4.707000732E0
2.783830729E0,-1.007958889E0,8.772355080E0,4.458003521E0
2.786716225E0,-9.864110947E-1,8.916007042E0,4.106055737E0
2.788044844E0,-9.792284966E-1,9.071630478E0,3.691859007E0
2.790817225E0,-9.840168953E-1,9.234436035E0,3.296815634E0
2.792178421E0,-9.864110947E-1,9.380482674E0,2.870647907E0
2.794864498E0,-9.816226959E-1,9.392453194E0,2.705447912E0
2.796154690E0,-9.768342972E-1,9.351752281E0,2.602497339E0
2.798936110E0,-1.000776291E0,9.299078941E0,2.578555346E0
2.800189152E0,-1.058237195E0,9.275136948E0,2.659958124E0
2.803038417E0,-1.127668977E0,9.289502144E0,2.815581083E0
2.804376690E0,-1.173158884E0,9.291896820E0,3.016694069E0
2.807140764E0,-1.163581967E0,9.229647636E0,3.208230257E0
2.808423075E0,-1.079784989E0,9.102754593E0,3.371036053E0
2.811242956E0,-9.265560508E-1,8.980650902E0,3.591302633E0
2.812708652E0,-7.709329724E-1,8.844181061E0,3.835511208E0
2.815277917E0,-7.565677166E-1,8.674192429E0,4.024652958E0
2.816490921E0,-8.978256583E-1,8.590395927E0,4.232948780E0
2.819163344E0,-1.051054597E0,8.657433510E0,4.443638325E0
2.820629498E0,-1.228225470E0,8.734047890E0,4.527435303E0
2.823404267E0,-1.429338455E0,8.676587105E0,4.450820923E0
2.824666575E0,-1.482010841E0,8.609549522E0,4.333505154E0
2.827091536E0,-1.295263171E0,8.674192429E0,4.264073372E0
2.828767113E0,-1.137245774E0,8.652645111E0,4.003105164E0
2.831187113E0,-1.271321058E0,8.480262756E0,3.538630009E0
2.833048575E0,-1.467645645E0,8.552088737E0,3.265691042E0
2.835275613E0,-1.568202138E0,8.801085472E0,3.059789658E0
2.836937152E0,-2.025494576E0,8.801085472E0,2.657563925E0
2.839254536E0,-2.375048161E0,9.150638580E0,2.770091295E0
2.840978921E0,-1.932120800E0,9.619902611E0,2.815581083E0
2.843456536E0,-1.419761658E0,9.636661530E0,2.657563925E0
2.845081844E0,-1.051054597E0,9.248801231E0,2.604891539E0
2.847511113E0,-1.244984865E-1,9.083600998E0,2.930502892E0
2.849194921E0,1.065419793E0,9.354146004E0,3.813963413E0
2.851685844E0,1.584961534E0,8.808267593E0,4.232948780E0
2.853516306E0,1.381454349E0,8.408436775E0,4.266467571E0
2.855752959E0,1.302445769E0,8.717288017E0,4.821922302E0
2.857486959E0,9.433154464E-1,9.100360870E0,5.410895824E0
2.859856229E0,-2.394201700E-3,9.038111687E0,5.619191170E0
2.861592344E0,-9.935936928E-1,8.714894295E0,5.499481201E0
2.864213613E0,-1.659181833E0,8.717288017E0,5.590460777E0
2.865556306E0,-2.149993181E0,8.925583839E0,5.774814606E0
2.868373186E0,-2.537853718E0,9.030928612E0,5.695806026E0
2.869700767E0,-2.590526342E0,8.987833023E0,5.437232018E0
2.872474109E0,-2.219424963E0,8.889671326E0,5.209783077E0
2.873874344E0,-1.635239720E0,8.805873871E0,5.116408825E0
2.876519148E0,-1.051054597E0,8.683769226E0,4.869806290E0
2.877753267E0,-4.860229492E-1,8.671798706E0,4.441244125E0
2.880585186E0,3.830722719E-2,8.884882927E0,4.015076160E0
2.882137729E0,3.782838583E-1,9.100360870E0,3.557783842E0
2.884686609E0,3.926490843E-1,9.191340446E0,3.129221678E0
2.885942575E0,1.412578970E-1,9.169792175E0,2.762908697E0
2.888788494E0,-2.346317619E-1,9.217676163E0,2.554613113E0
2.890010075E0,-7.589619160E-1,9.306262016E0,2.379836559E0
2.892889840E0,-1.393425345E0,9.452308655E0,2.207453966E0
2.894277690E0,-1.910573006E0,9.557653427E0,2.092532396E0
2.896923725E0,-2.154781580E0,9.531316757E0,2.185906172E0
2.898202036E0,-2.063801765E0,9.445125580E0,2.659958124E0
2.900825882E0,-1.692700624E0,9.107542992E0,3.167528868E0
2.902445575E0,-1.201889277E0,8.508993149E0,3.399766445E0
2.905091609E0,-7.613561153E-1,8.125920296E0,3.605667830E0
2.906355767E0,-4.716577232E-1,8.145073891E0,3.916913986E0
2.908688652E0,-5.267243981E-1,8.303091049E0,4.201824188E0
2.910500113E0,-1.072602391E0,8.334216118E0,4.381389141E0
2.912853459E0,-2.094926596E0,8.379706383E0,4.661510944E0
2.914699998E0,-2.382230759E0,8.619126320E0,4.853046894E0
2.916853536E0,-2.375048161E0,8.760383606E0,4.757278919E0
2.918787459E0,-2.183511972E0,8.710105896E0,4.393360138E0
2.920911459E0,-1.778891921E0,8.621520042E0,4.086902142E0
2.922637806E0,-1.247379065E0,8.619126320E0,4.050989151E0
2.925243306E0,-8.499416113E-1,8.609549522E0,4.103661537E0
2.926745421E0,-6.655880809E-1,8.530540466E0,4.027047157E0
2.929387536E0,-5.363011956E-1,8.513781548E0,3.840299606E0
2.930895190E0,-3.974374831E-1,8.652645111E0,3.708618402E0
2.933345152E0,-3.854664862E-1,8.805873871E0,3.663128614E0
2.935146844E0,-6.009446383E-1,8.880094528E0,3.670311213E0
2.937448844E0,-9.504981041E-1,8.887276649E0,3.744531393E0
2.939544344E0,-1.307234168E0,8.877699852E0,3.840299606E0
2.941542036E0,-1.572990537E0,8.968679428E0,3.967192173E0
2.943294921E0,-1.649604917E0,9.136273384E0,4.048594952E0
2.945920686E0,-1.525106430E0,9.234436035E0,4.036623955E0
2.947196075E0,-1.316810966E0,9.200917244E0,4.060565948E0
2.950022186E0,-1.034295082E0,9.093177795E0,4.273650169E0
2.951288959E0,-6.823474765E-1,8.927978516E0,4.563348293E0
2.954123609E0,-3.998316824E-1,8.765172005E0,4.790797710E0
2.955513921E0,-2.202665508E-1,8.726864815E0,4.888959885E0
2.958177725E0,-5.027823523E-2,8.846575737E0,4.881777287E0
2.959419229E0,7.900865376E-2,9.004592896E0,4.788403511E0
2.962244186E0,4.309562966E-2,9.047688484E0,4.563348293E0
2.963467806E0,-1.149216816E-1,9.045293808E0,4.299986362E0
2.966345725E0,-2.753331959E-1,9.129091263E0,4.067748547E0
2.967601036E0,-4.477157295E-1,9.303867340E0,3.780444384E0
2.970447455E0,-6.584054828E-1,9.461885452E0,3.385401249E0
2.971668536E0,-8.355764151E-1,9.562441826E0,2.985569477E0
2.974548840E0,-9.074024558E-1,9.562441826E0,2.679111719E0
2.975974113E0,-8.667010069E-1,9.452308655E0,2.705447912E0
2.978589378E0,-7.685387731E-1,9.275136948E0,2.794033289E0
2.979824575E0,-6.320692301E-1,9.133879662E0,2.892195702E0
2.982501806E0,-5.219359994E-1,9.088389397E0,3.026270866E0
2.983889421E0,-5.075707436E-1,9.081207275E0,3.215412855E0
2.986758801E0,-6.224924326E-1,9.009381294E0,3.485957623E0
2.988131421E0,-8.140285611E-1,8.851364136E0,3.823540211E0
2.990452652E0,-1.000776291E0,8.698134422E0,4.209006786E0
2.992081459E0,-1.154005170E0,8.626308441E0,4.556165695E0
2.994473652E0,-1.300051570E0,8.592789650E0,4.747702122E0
2.996342575E0,-1.419761658E0,8.547300339E0,4.824316502E0
2.998497767E0,-1.467645645E0,8.516175270E0,4.910507679E0
3.000185729E0,-1.443703651E0,8.513781548E0,5.025429249E0
3.002579229E0,-1.391031146E0,8.525752068E0,5.090072632E0
3.004316652E0,-1.316810966E0,8.535328865E0,4.991910458E0
3.007177801E0,-1.180341482E0,8.556877136E0,4.738125324E0
3.008378113E0,-9.313444495E-1,8.650250435E0,4.422090530E0
3.010802152E0,-6.440402865E-1,8.808267593E0,4.094084740E0
3.012552267E0,-4.525041282E-1,8.937555313E0,3.715801001E0
3.014954382E0,-3.639186621E-1,9.028534889E0,3.282450438E0
3.016894805E0,-3.327940404E-1,9.162610054E0,2.870647907E0
3.018996498E0,-3.256114423E-1,9.378087997E0,2.497152328E0
3.020670113E0,-3.591302633E-1,9.586383820E0,2.157175779E0
3.023119998E0,-4.141969085E-1,9.715670586E0,1.874659896E0
3.024745075E0,-4.357447028E-1,9.777919769E0,1.774103403E0
3.027494959E0,-4.381389022E-1,9.789890289E0,1.934514999E0
3.029368267E0,-4.572925270E-1,9.715670586E0,2.257732153E0
3.031692147E0,-4.620809257E-1,9.595960617E0,2.638410330E0
3.033019998E0,-4.022258818E-1,9.478644371E0,3.064578056E0
3.035794763E0,-1.891419291E-1,9.289502144E0,3.849876404E0
3.037446344E0,-5.506663769E-2,9.069235802E0,4.412513733E0
3.039846532E0,2.154781483E-2,8.822632790E0,4.934449673E0
3.041018382E0,1.197100803E-2,8.652645111E0,5.413290024E0
3.043914801E0,-1.053448766E-1,8.568847656E0,5.791574001E0
3.045267536E0,-2.585737705E-1,8.547300339E0,6.016628742E0
3.048017801E0,-4.094084799E-1,8.571242332E0,6.095637321E0
3.049577344E0,-5.482721925E-1,8.626308441E0,6.042964935E0
3.052120763E0,-6.512228847E-1,8.705317497E0,5.906495571E0
3.053504729E0,-6.943184733E-1,8.772355080E0,5.693411827E0
3.056223647E0,-6.727706790E-1,8.813055992E0,5.384559631E0
3.057984844E0,-5.793967843E-1,8.858546257E0,4.996698856E0
3.060258570E0,-4.141969085E-1,8.927978516E0,4.587290287E0
3.061459075E0,-2.418143749E-1,8.987833023E0,4.192247391E0
3.064160805E0,-1.436520964E-1,9.018958092E0,3.821146011E0
3.065593882E0,-1.340752989E-1,9.062053680E0,3.500322819E0
3.068429378E0,-2.178723514E-1,9.138668060E0,3.208230257E0
3.069819305E0,-3.950432837E-1,9.227252960E0,2.944868088E0
3.072147575E0,-6.009446383E-1,9.315838814E0,2.731784105E0
3.073770190E0,-7.637503147E-1,9.385271072E0,2.602497339E0
3.076143844E0,-8.858546019E-1,9.394847870E0,2.573766708E0
3.078024921E0,-9.888052940E-1,9.323021889E0,2.597708941E0
3.080174690E0,-1.051054597E0,9.239224434E0,2.686294317E0
3.081857959E0,-1.055842996E0,9.193734169E0,2.853888512E0
3.084236421E0,-1.005564690E0,9.172186852E0,3.043030262E0
3.086221613E0,-9.217676520E-1,9.109937668E0,3.220201254E0
3.088431575E0,-8.116343617E-1,9.023746490E0,3.416525841E0
3.090060882E0,-6.751648784E-1,8.951920509E0,3.651157618E0
3.092502113E0,-5.386953950E-1,8.889671326E0,3.885789394E0
3.094160613E0,-4.477157295E-1,8.805873871E0,4.118026733E0
3.096564767E0,-4.644751251E-1,8.784325600E0,4.163516521E0
3.098427690E0,-5.051765442E-1,8.841787338E0,4.185064793E0
3.100588998E0,-5.674257874E-1,8.913613319E0,4.175487995E0
3.102353728E0,-6.392518282E-1,8.932766914E0,4.115632534E0
3.104811267E0,-6.943184733E-1,8.949525833E0,4.043806553E0
3.106369767E0,-7.278373241E-1,8.997409821E0,3.976768970E0
3.109264070E0,-7.709329724E-1,9.033323288E0,3.904942989E0
3.110461882E0,-7.996633649E-1,9.035717010E0,3.854664803E0
3.113366609E0,-7.900865674E-1,9.011775017E0,3.804386616E0
3.114631805E0,-7.757213712E-1,9.011775017E0,3.782838583E0
3.117468685E0,-8.188169599E-1,9.018958092E0,3.782838583E0
3.118853382E0,-9.050082564E-1,9.018958092E0,3.758896589E0
3.121515185E0,-9.792284966E-1,9.018958092E0,3.727771997E0
3.122688113E0,-1.046266198E0,9.059659004E0,3.739742994E0
3.125583455E0,-1.106121182E0,9.095572472E0,3.766079187E0
3.126807805E0,-1.122880578E0,9.100360870E0,3.773261786E0
3.129686455E0,-1.096544385E0,9.097966194E0,3.801992416E0
3.130932575E0,-1.055842996E0,9.090784073E0,3.861847401E0
3.133791108E0,-1.010353088E0,9.088389397E0,3.955221176E0
3.135017113E0,-9.624691010E-1,9.088389397E0,4.072536945E0
3.137894416E0,-8.978256583E-1,9.054870605E0,4.163516521E0
3.139586190E0,-8.164227605E-1,8.995016098E0,4.259284973E0
3.141930993E0,-7.062895298E-1,8.925583839E0,4.374206543E0
3.143112190E0,-5.841852427E-1,8.841787338E0,4.453215122E0
3.145840344E0,-5.027823448E-1,8.774748802E0,4.491522312E0
3.147285459E0,-5.075707436E-1,8.729259491E0,4.474762917E0
3.150054690E0,-5.578489900E-1,8.734047890E0,4.400542736E0
3.151316190E0,-6.751648784E-1,8.779537201E0,4.316745758E0
3.153718498E0,-9.361328483E-1,8.863334656E0,4.125209332E0
3.155486152E0,-1.089361787E0,8.913613319E0,3.981557369E0
3.157828767E0,-1.189918280E0,8.923190117E0,3.816357613E0
3.159696459E0,-1.218648672E0,8.908824921E0,3.639186621E0
3.161848959E0,-1.194706678E0,8.889671326E0,3.423708439E0
3.163619344E0,-1.127668977E0,8.925583839E0,3.246537447E0
3.166000421E0,-1.103726983E0,9.030928612E0,3.160346270E0
3.167634113E0,-1.154005170E0,9.059659004E0,3.122039080E0
3.170309652E0,-1.192312479E0,8.999804497E0,3.095702887E0
3.171744152E0,-1.168370485E0,8.947132111E0,3.143586874E0
3.174119305E0,-1.108515382E0,8.944737434E0,3.196259260E0
3.175847113E0,-1.086967587E0,8.990227699E0,3.303998232E0
3.178278421E0,-1.125274777E0,8.975862503E0,3.438073635E0
3.180117382E0,-1.173158884E0,8.906430244E0,3.596091032E0
3.182256690E0,-1.185129881E0,8.832210541E0,3.773261786E0
3.183956190E0,-1.175553083E0,8.832210541E0,3.981557369E0
3.186686459E0,-1.187524080E0,8.863334656E0,4.216189384E0
3.188086536E0,-1.144428372E0,8.817844391E0,4.424484730E0
3.190794113E0,-9.935936928E-1,8.712499619E0,4.599261284E0
3.192222959E0,-8.307880163E-1,8.628703117E0,4.778826714E0
3.195048070E0,-7.541735172E-1,8.583212852E0,4.910507679E0
3.196435652E0,-7.110779285E-1,8.585607529E0,4.960785866E0
3.199150877E0,-6.344634295E-1,8.647856712E0,4.948814869E0
3.200543421E0,-5.698199868E-1,8.705317497E0,4.848258495E0
3.203206877E0,-5.578489900E-1,8.734047890E0,4.675876141E0
3.204438575E0,-5.817909837E-1,8.748413086E0,4.472368717E0
3.207274570E0,-6.272808313E-1,8.803479195E0,4.290409565E0
3.208481613E0,-7.038952708E-1,8.892065048E0,4.139574528E0
3.211377493E0,-8.140285611E-1,8.971074104E0,3.909731388E0
3.212639844E0,-9.624691010E-1,9.097966194E0,3.435679436E0
3.215480300E0,-9.816226959E-1,9.198522568E0,3.208230257E0
3.216683267E0,-9.504981041E-1,9.291896820E0,3.141192675E0
3.219583108E0,-8.906430602E-1,9.299078941E0,3.110068083E0
3.221066575E0,-8.020575643E-1,9.253589630E0,3.043030262E0
3.223649647E0,-7.326257229E-1,9.215282440E0,2.987963676E0
3.224863613E0,-6.536170840E-1,9.167398453E0,2.995146275E0
3.227550498E0,-5.578489900E-1,9.150638580E0,3.117250681E0
3.229004844E0,-5.291185975E-1,9.121908188E0,3.335123062E0
3.231820839E0,-6.200982332E-1,9.028534889E0,3.500322819E0
3.233065728E0,-7.781155705E-1,8.966285706E0,3.646369219E0
3.235489305E0,-9.289502501E-1,8.990227699E0,3.809175014E0
3.237462844E0,-1.067813993E0,9.030928612E0,3.960009575E0
3.239580651E0,-1.154005170E0,8.999804497E0,4.060565948E0
3.241551075E0,-1.161187768E0,8.932766914E0,4.153939724E0
3.243568498E0,-1.125274777E0,8.872911453E0,4.273650169E0
3.245348959E0,-1.098938584E0,8.827422142E0,4.362235546E0
3.247640382E0,-1.077390790E0,8.805873871E0,4.388571739E0
3.249367190E0,-1.079784989E0,8.803479195E0,4.369418144E0
3.252238723E0,-1.096544385E0,8.793902397E0,4.309563160E0
3.253466613E0,-1.063025594E0,8.791508675E0,4.244919777E0
3.255827882E0,-1.007958889E0,8.805873871E0,4.170699596E0
3.257734690E0,-1.029506683E0,8.841787338E0,4.086902142E0
3.260019998E0,-1.137245774E0,8.920795441E0,3.976768970E0
3.261862267E0,-1.240196466E0,9.018958092E0,3.801992416E0
3.264019613E0,-1.295263171E0,9.083600998E0,3.639186621E0
3.265702998E0,-1.295263171E0,9.054870605E0,3.512293816E0
3.268139498E0,-1.237802267E0,9.018958092E0,3.464409828E0
3.269766075E0,-1.168370485E0,9.052476883E0,3.476380825E0
3.272448651E0,-1.156399369E0,9.090784073E0,3.430891037E0
3.273861113E0,-1.209071875E0,9.071630478E0,3.402160645E0
3.276755223E0,-1.192312479E0,9.069235802E0,3.440467834E0
3.277992536E0,-1.106121182E0,9.102754593E0,3.552995205E0
3.280859031E0,-1.007958889E0,9.088389397E0,3.632004023E0
3.282314844E0,-8.882488012E-1,9.018958092E0,3.636792421E0
3.284910685E0,-7.685387731E-1,8.971074104E0,3.648763418E0
3.286169959E0,-7.182605267E-1,8.980650902E0,3.715801001E0
3.288978262E0,-7.829039693E-1,9.002198219E0,3.787626982E0
3.290215536E0,-8.954314590E-1,8.999804497E0,3.816357613E0
3.293081916E0,-9.816226959E-1,8.997409821E0,3.842693806E0
3.294316959E0,-1.039083481E0,9.021351814E0,3.897760391E0
3.297184800E0,-1.091755986E0,9.035717010E0,3.936067581E0
3.298438536E0,-1.113303781E0,8.995016098E0,3.878606796E0
3.301287069E0,-1.055842996E0,8.968679428E0,3.821146011E0
3.302750728E0,-9.504981041E-1,8.963891029E0,3.818751812E0
3.305322531E0,-8.403648138E-1,8.966285706E0,3.830722809E0
3.306524959E0,-7.709329724E-1,8.973467827E0,3.809175014E0
3.309378267E0,-8.092401624E-1,8.947132111E0,3.742137194E0
3.310666728E0,-8.834604025E-1,8.980650902E0,3.677493811E0
3.313493185E0,-8.834604025E-1,9.095572472E0,3.658340216E0
3.314756459E0,-1.103726983E0,9.181763649E0,3.763684988E0
3.317245074E0,-1.307234168E0,8.959102631E0,3.574543238E0
3.318845113E0,-1.259350061E0,8.844181061E0,3.485957623E0
3.321244651E0,-1.211466074E0,9.038111687E0,3.691859007E0
3.323088421E0,-1.149216771E0,9.126696587E0,3.799597979E0
3.325316498E0,-1.005564690E0,9.112331390E0,3.806780815E0
3.326913998E0,-8.212111592E-1,9.121908188E0,3.916913986E0
3.329312382E0,-5.817909837E-1,8.971074104E0,3.945644379E0
3.331098151E0,-1.053448766E-1,8.786720276E0,4.149151325E0
3.333595228E0,9.097966552E-2,8.645462036E0,4.240131378E0
3.335169074E0,4.788403399E-3,8.585607529E0,4.232948780E0
3.337592728E0,-3.423708379E-1,8.657433510E0,4.249708176E0
3.339375498E0,-8.307880163E-1,8.719682693E0,4.180276394E0
3.341736844E0,-1.323993564E0,8.827422142E0,4.192247391E0
3.343538151E0,-1.587355733E0,8.939949036E0,4.175487995E0
3.346163800E0,-1.606509328E0,9.076418877E0,4.070142746E0
3.347488613E0,-1.539471745E0,9.165003777E0,3.881000996E0
3.349823421E0,-1.383848548E0,9.129091263E0,3.584120035E0
3.351510305E0,-1.060631394E0,9.102754593E0,3.438073635E0
3.354287344E0,-6.775590777E-1,9.038111687E0,3.438073635E0
3.355666728E0,-3.950432837E-1,8.899248123E0,3.469198227E0
3.358438338E0,-2.657563984E-1,8.808267593E0,3.495534420E0
3.359679344E0,-2.657563984E-1,8.870517731E0,3.572149038E0
3.362542031E0,-4.165911078E-1,8.990227699E0,3.672705412E0
3.363942074E0,-7.158663273E-1,9.033323288E0,3.761290789E0
3.366587723E0,-1.029506683E0,8.997409821E0,3.842693806E0
3.367888074E0,-1.194706678E0,9.004592896E0,4.003105164E0
3.370655454E0,-1.189918280E0,9.052476883E0,4.199429989E0
3.371947921E0,-1.065419793E0,9.069235802E0,4.297592163E0
3.374758069E0,-8.667010069E-1,9.035717010E0,4.268861771E0
3.375983344E0,-6.991068721E-1,8.997409821E0,4.223371983E0
3.378860608E0,-5.841852427E-1,8.923190117E0,4.283226967E0
3.380075113E0,-4.165911078E-1,8.801085472E0,4.431667328E0
3.382963646E0,-2.035071403E-1,8.712499619E0,4.582501888E0
3.384499767E0,-8.379705995E-2,8.683769226E0,4.596867085E0
3.387000454E0,-1.412578970E-1,8.757989883E0,4.472368717E0
3.388207382E0,-2.801215947E-1,8.913613319E0,4.326322556E0
3.390839036E0,-4.884171486E-1,9.066842079E0,4.201824188E0
3.392522613E0,-5.746083856E-1,9.040505409E0,4.074931145E0
3.395172454E0,-5.554547906E-1,9.035717010E0,3.881000996E0
3.396653382E0,-4.908113480E-1,9.109937668E0,3.682282209E0
3.398774344E0,-4.309563041E-1,9.172186852E0,3.473986626E0
3.400499305E0,-3.711012602E-1,9.157821655E0,3.327940464E0
3.402921228E0,-3.303998411E-1,9.071630478E0,3.339911461E0
3.404787382E0,-3.663128614E-1,8.973467827E0,3.509899616E0
3.407053728E0,-4.118026793E-1,8.925583839E0,3.701435804E0
3.408610998E0,-4.046200812E-1,8.983044624E0,3.849876404E0
3.410987382E0,-3.830722570E-1,9.035717010E0,3.902548790E0
3.412707998E0,-3.926490843E-1,8.959102631E0,3.876212597E0
3.415301997E0,-3.950432837E-1,8.841787338E0,3.924096584E0
3.416809497E0,-3.806780577E-1,8.789113998E0,4.129997730E0
3.419243844E0,-4.022258818E-1,8.769960403E0,4.335899353E0
3.420943228E0,-4.860229492E-1,8.753201485E0,4.400542736E0
3.423352382E0,-5.937620401E-1,8.750806808E0,4.304774761E0
3.425584421E0,-6.799532771E-1,8.815450668E0,4.232948780E0
3.427506959E0,-7.230489254E-1,8.868123055E0,4.280832767E0
3.429300113E0,-6.607996821E-1,8.841787338E0,4.378994942E0
3.431505959E0,-5.458779931E-1,8.815450668E0,4.429273129E0
3.433258151E0,-4.429273009E-1,8.803479195E0,4.347870350E0
3.435832344E0,-3.734954596E-1,8.822632790E0,4.139574528E0
3.437389459E0,-3.040636182E-1,8.882488251E0,3.971980572E0
3.440107300E0,-2.418143749E-1,8.896853447E0,3.904942989E0
3.441356613E0,-2.466027737E-1,8.868123055E0,3.916913986E0
3.444210453E0,-3.280056417E-1,8.848969460E0,3.945644379E0
3.445782728E0,-4.932055473E-1,8.877699852E0,3.900154591E0
3.448266723E0,-6.847416759E-1,8.963891029E0,3.835511208E0
3.449649305E0,-7.900865674E-1,9.062053680E0,3.787626982E0
3.452335300E0,-8.092401624E-1,9.088389397E0,3.888183594E0
3.453658728E0,-7.685387731E-1,8.992621422E0,4.029441357E0
3.456438800E0,-6.799532771E-1,8.913613319E0,4.209006786E0
3.457716921E0,-5.482721925E-1,8.851364136E0,4.319139957E0
3.460542530E0,-4.189853072E-1,8.805873871E0,4.367023945E0
3.461792036E0,-3.232172430E-1,8.781931877E0,4.446032524E0
3.464646415E0,-2.537853718E-1,8.760383606E0,4.568136692E0
3.466120613E0,-2.585737705E-1,8.762778282E0,4.738125324E0
3.468687530E0,-3.232172430E-1,8.765172005E0,4.867412090E0
3.469855767E0,-4.165911078E-1,8.731653214E0,4.836287498E0
3.472756684E0,-4.979939461E-1,8.714894295E0,4.702212334E0
3.474037921E0,-5.051765442E-1,8.743624687E0,4.556165695E0
3.476860453E0,-4.572925270E-1,8.832210541E0,4.462791920E0
3.478089074E0,-4.477157295E-1,8.944737434E0,4.405331135E0
3.480450767E0,-5.363011956E-1,8.944737434E0,4.240131378E0
3.482128844E0,-5.961562395E-1,8.918401718E0,3.983951569E0
3.484600113E0,-6.177040339E-1,8.944737434E0,3.813963413E0
3.486572651E0,-5.889736414E-1,8.916007042E0,3.667917013E0
3.488626497E0,-4.189853072E-1,9.021351814E0,3.639186621E0
3.490301805E0,-2.322375625E-1,9.093177795E0,3.620033026E0
3.492677228E0,-2.705447972E-1,9.074024200E0,3.538630009E0
3.494429536E0,-3.950432837E-1,9.045293808E0,3.507505417E0
3.497286184E0,-3.591302633E-1,9.057265282E0,3.464409828E0
3.498596997E0,-2.609679997E-1,9.181763649E0,3.603273630E0
3.500967574E0,-1.795651317E-1,9.066842079E0,3.519476414E0
3.502713305E0,-1.292868853E-1,8.904036522E0,3.421314240E0
3.505013074E0,-2.226607651E-1,8.963891029E0,3.682282209E0
3.506857113E0,-4.141969085E-1,9.074024200E0,3.921702385E0
3.509008459E0,-6.607996821E-1,9.069235802E0,3.991134167E0
3.510694267E0,-8.188169599E-1,9.069235802E0,4.072536945E0
3.513243997E0,-7.038952708E-1,9.131484985E0,4.273650169E0
3.514883997E0,-3.423708379E-1,9.129091263E0,4.388571739E0
3.517543997E0,-9.576806799E-3,8.927978516E0,4.364629745E0
3.518924651E0,1.963245422E-1,8.662221909E0,4.259284973E0
3.521807530E0,3.375824392E-1,8.614337921E0,4.297592163E0
3.523020728E0,3.758896589E-1,8.789113998E0,4.448426723E0
3.525912069E0,1.508347094E-1,8.983044624E0,4.520252705E0
3.527306459E0,-2.154781520E-1,9.016563416E0,4.386177540E0
3.529965069E0,-4.405331016E-1,9.074024200E0,4.268861771E0
3.531153497E0,-5.099649429E-1,9.141061783E0,4.276044369E0
3.534033992E0,-5.123591423E-1,9.062053680E0,4.220977783E0
3.535275459E0,-4.213795066E-1,8.975862503E0,4.127603531E0
3.538137722E0,-2.609679997E-1,8.990227699E0,4.024652958E0
3.539363651E0,-1.771709323E-1,9.095572472E0,3.964797974E0
3.542241722E0,-1.915361285E-1,9.143456459E0,3.916913986E0
3.543452382E0,-1.843535304E-1,9.093177795E0,3.888183594E0
3.546345607E0,-9.816227108E-2,9.038111687E0,3.957615376E0
3.547701113E0,3.591302410E-2,9.018958092E0,4.055777550E0
3.550383222E0,9.816227108E-2,9.016563416E0,4.125209332E0
3.551549882E0,9.576806799E-3,9.009381294E0,4.141968727E0
3.554177459E0,-1.388636976E-1,8.966285706E0,4.096478939E0
3.555640920E0,-2.394201756E-1,8.961497307E0,4.086902142E0
3.558503920E0,-2.777273953E-1,9.042900085E0,4.175487995E0
3.559744267E0,-2.968810201E-1,9.081207275E0,4.228160381E0
3.562277228E0,-3.184288144E-1,9.074024200E0,4.249708176E0
3.563902728E0,-2.849099934E-1,9.011775017E0,4.213795185E0
3.566289920E0,-1.556231081E-1,8.904036522E0,4.151545525E0
3.568156267E0,-1.197100878E-1,8.899248123E0,4.201824188E0
3.570347920E0,-9.097966552E-2,8.916007042E0,4.266467571E0
3.572009267E0,-5.985504389E-2,8.954314232E0,4.288015366E0
3.574619074E0,-3.112462163E-2,8.920795441E0,4.211400986E0
3.576084728E0,-2.154781483E-2,8.882488251E0,4.058171749E0
3.578564420E0,-6.703764945E-2,9.050082207E0,4.103661537E0
3.580158036E0,-9.576806426E-2,9.069235802E0,4.012681961E0
3.582618074E0,-1.364694983E-1,8.999804497E0,3.866635799E0
3.584293690E0,-1.987187415E-1,8.975862503E0,3.825934410E0
3.586719882E0,-2.657563984E-1,9.021351814E0,3.816357613E0
3.588575344E0,-3.806780577E-1,9.119514465E0,3.845088005E0
3.590699882E0,-5.219359994E-1,9.138668060E0,3.792415380E0
3.592452267E0,-5.626373887E-1,9.186552048E0,3.799597979E0
3.594874074E0,-4.477157295E-1,9.232041359E0,3.835511208E0
3.596514997E0,-2.657563984E-1,9.196128845E0,3.816357613E0
3.599312459E0,-1.125274822E-1,9.078812599E0,3.790021181E0
3.600596459E0,8.379705995E-2,8.923190117E0,3.730166197E0
3.603505184E0,3.088520169E-1,9.172186852E0,3.919308186E0
3.605041497E0,3.351882398E-1,9.330204010E0,3.962403774E0
3.607608453E0,6.703764945E-2,9.064447403E0,3.627215624E0
3.608977228E0,-1.651999205E-1,9.023746490E0,3.713406801E0
3.611654568E0,-1.149216816E-1,9.203310966E0,4.015076160E0
3.612858574E0,-1.412578970E-1,9.392453194E0,4.259284973E0
3.615709728E0,-4.429273009E-1,9.181763649E0,4.007893562E0
3.616936190E0,-5.961562395E-1,9.016563416E0,3.715801001E0
3.619820920E0,-3.950432837E-1,9.253589630E0,3.845088005E0
3.621861030E0,-1.556231081E-1,9.416395187E0,4.010287762E0
3.623905536E0,-1.268926859E-1,9.162610054E0,3.801992416E0
3.625106190E0,4.309562966E-2,9.160215378E0,3.730166197E0
3.628033837E0,2.466027737E-1,9.208099365E0,3.701435804E0
3.629401382E0,1.771709323E-1,9.150638580E0,3.622427225E0
3.632050190E0,-3.830722719E-2,9.157821655E0,3.643975019E0
3.633226959E0,-1.891419291E-1,9.289502144E0,3.711012602E0
3.635866113E0,-3.399766386E-1,9.373299599E0,3.713406801E0
3.637311997E0,-5.482721925E-1,9.234436035E0,3.505111217E0
3.640168497E0,-6.272808313E-1,9.150638580E0,3.344699860E0
3.641415805E0,-5.339069963E-1,9.224859238E0,3.387795448E0
3.643820382E0,-4.596867263E-1,9.270348549E0,3.462015629E0
3.645521728E0,-5.410895944E-1,9.167398453E0,3.445256233E0
3.647943690E0,-6.919242740E-1,9.026140213E0,3.409343243E0
3.649806459E0,-8.140285611E-1,9.033323288E0,3.538630009E0
3.651996497E0,-8.786720037E-1,9.112331390E0,3.758896589E0
3.653694459E0,-8.762778044E-1,9.124302864E0,3.897760391E0
3.656034305E0,-8.140285611E-1,9.038111687E0,3.938461781E0
3.657740882E0,-6.967126727E-1,8.918401718E0,3.957615376E0
3.660323843E0,-5.506663918E-1,8.872911453E0,4.039018154E0
3.661852728E0,-4.405331016E-1,8.860940933E0,4.122815132E0
3.664245882E0,-3.950432837E-1,8.839392662E0,4.137180328E0
3.665968536E0,-3.950432837E-1,8.822632790E0,4.082113743E0
3.668377343E0,-4.213795066E-1,8.846575737E0,4.015076160E0
3.670229613E0,-4.908113480E-1,8.906430244E0,3.967192173E0
3.672357420E0,-6.177040339E-1,8.963891029E0,3.924096584E0
3.674058651E0,-7.637503147E-1,9.002198219E0,3.904942989E0
3.676524651E0,-8.786720037E-1,9.023746490E0,3.933673382E0
3.678152151E0,-8.882488012E-1,9.026140213E0,3.952826977E0
3.680856113E0,-7.852981687E-1,9.023746490E0,3.904942989E0
3.682263651E0,-6.368576288E-1,8.987833023E0,3.809175014E0
3.685193843E0,-3.950432837E-1,8.906430244E0,3.758896589E0
3.686368613E0,-2.609679997E-1,8.884882927E0,3.818751812E0
3.689297299E0,-2.801215947E-1,8.827422142E0,3.866635799E0
3.690653920E0,-4.501099288E-1,8.786720276E0,3.854664803E0
3.693332190E0,-6.320692301E-1,8.872911453E0,3.883395195E0
3.694495690E0,-7.733271718E-1,9.023746490E0,3.957615376E0
3.697403651E0,-9.217676520E-1,9.066842079E0,3.964797974E0
3.698602228E0,-1.022324085E0,8.966285706E0,3.924096584E0
3.701525260E0,-9.888052940E-1,8.877699852E0,3.950432777E0
3.702695613E0,-8.954314590E-1,8.858546257E0,4.041412354E0
3.705627876E0,-8.451532125E-1,8.844181061E0,4.070142746E0
3.706801267E0,-8.283938169E-1,8.822632790E0,4.017470360E0
3.709730837E0,-8.236053586E-1,8.829815865E0,3.955221176E0
3.711082190E0,-8.427590132E-1,8.856152534E0,3.940855980E0
3.713744074E0,-8.619126081E-1,8.848969460E0,3.962403774E0
3.714912805E0,-8.714894056E-1,8.829815865E0,3.983951569E0
3.717553959E0,-8.690952063E-1,8.829815865E0,3.960009575E0
3.719020843E0,-8.786720037E-1,8.868123055E0,3.888183594E0
3.721941414E0,-9.217676520E-1,8.923190117E0,3.794809580E0
3.723115074E0,-9.792284966E-1,8.949525833E0,3.711012602E0
3.725494459E0,-1.005564690E0,8.944737434E0,3.677493811E0
3.727254343E0,-9.935936928E-1,8.932766914E0,3.684676409E0
3.729636574E0,-1.000776291E0,8.932766914E0,3.675099611E0
3.731522805E0,-1.041477680E0,8.949525833E0,3.627215624E0
3.733707728E0,-1.060631394E0,8.992621422E0,3.581725836E0
3.735365382E0,-1.043871999E0,9.038111687E0,3.574543238E0
3.737736420E0,-1.012747288E0,9.030928612E0,3.584120035E0
3.739466228E0,-9.696516991E-1,8.966285706E0,3.576937437E0
3.742359222E0,-8.882488012E-1,8.939949036E0,3.579331636E0
3.743560343E0,-7.685387731E-1,9.011775017E0,3.586514235E0
3.745934113E0,-7.829039693E-1,9.057265282E0,3.564966440E0
3.747654843E0,-8.595184088E-1,9.052476883E0,3.550601006E0
3.750148382E0,-9.433154464E-1,9.026140213E0,3.600879431E0
3.751922343E0,-9.816226959E-1,9.018958092E0,3.694253206E0
3.754114728E0,-9.792284966E-1,9.011775017E0,3.770867586E0
3.755756151E0,-9.504981041E-1,8.997409821E0,3.799597979E0
3.758216343E0,-9.265560508E-1,8.975862503E0,3.801992416E0
3.759904151E0,-9.074024558E-1,8.954314232E0,3.840299606E0
3.762591420E0,-8.834604025E-1,8.932766914E0,3.924096584E0
3.763974959E0,-8.619126081E-1,8.906430244E0,4.007893562E0
3.766875106E0,-8.667010069E-1,8.887276649E0,4.050989151E0
3.768059459E0,-8.762778044E-1,8.896853447E0,4.036623955E0
3.770977914E0,-8.786720037E-1,8.918401718E0,4.005499363E0
3.772353343E0,-8.714894056E-1,8.927978516E0,3.981557369E0
3.775030298E0,-8.475474119E-1,8.925583839E0,3.983951569E0
3.776187728E0,-8.307880163E-1,8.935160637E0,3.995922565E0
3.779097644E0,-8.331822157E-1,8.944737434E0,3.969586372E0
3.780298420E0,-8.283938169E-1,8.939949036E0,3.883395195E0
3.783200183E0,-8.044517636E-1,8.956708908E0,3.778050184E0
3.784545151E0,-7.757213712E-1,8.997409821E0,3.715801001E0
3.787303644E0,-7.685387731E-1,9.016563416E0,3.684676409E0
3.788511882E0,-8.188169599E-1,9.002198219E0,3.670311213E0
3.791406644E0,-9.002198577E-1,8.968679428E0,3.648763418E0
3.792805497E0,-9.600749016E-1,8.966285706E0,3.610456228E0
3.795441760E0,-9.864110947E-1,9.011775017E0,3.591302633E0
3.796601459E0,-9.935936928E-1,9.045293808E0,3.591302633E0
3.799288266E0,-9.864110947E-1,9.009381294E0,3.591302633E0
3.800783459E0,-9.481038451E-1,8.954314232E0,3.627215624E0
3.803574690E0,-8.690952063E-1,8.927978516E0,3.737348795E0
3.804843959E0,-8.643068075E-1,8.932766914E0,3.766079187E0
3.807221843E0,-8.762778044E-1,8.916007042E0,3.761290789E0
3.808934228E0,-8.523358107E-1,8.899248123E0,3.782838583E0
3.811349113E0,-8.212111592E-1,8.896853447E0,3.857059002E0
3.813237920E0,-8.020575643E-1,8.892065048E0,3.955221176E0
3.815349036E0,-8.164227605E-1,8.870517731E0,4.024652958E0
3.817034459E0,-8.259995580E-1,8.848969460E0,4.060565948E0
3.819403305E0,-7.996633649E-1,8.853757858E0,4.096478939E0
3.821236882E0,-7.374141216E-1,8.887276649E0,4.137180328E0
3.823609343E0,-6.775590777E-1,8.882488251E0,4.141968727E0
3.825237036E0,-6.033388376E-1,8.892065048E0,4.139574528E0
3.827613843E0,-4.716577232E-1,8.999804497E0,4.182670593E0
3.829361959E0,-3.447650373E-1,9.002198219E0,4.098873138E0
3.831750920E0,-3.136404157E-1,8.904036522E0,3.945644379E0
3.833605497E0,-2.681505978E-1,8.920795441E0,3.960009575E0
3.835749613E0,-1.604115069E-1,9.026140213E0,4.043806553E0
3.837441997E0,-1.939303428E-1,9.052476883E0,4.031835556E0
3.839920113E0,-3.926490843E-1,8.968679428E0,3.892971992E0
3.841569766E0,-5.099649429E-1,9.004592896E0,3.825934410E0
3.844379305E0,-4.812345505E-1,9.200917244E0,3.900154591E0
3.845735651E0,-4.740519226E-1,9.255983353E0,3.895366192E0
3.848553913E0,-5.147533417E-1,9.141061783E0,3.773261786E0
3.849797113E0,-4.501099288E-1,9.078812599E0,3.703830004E0
3.852655683E0,-3.064578176E-1,9.112331390E0,3.727771997E0
3.854133728E0,-2.513911724E-1,9.121908188E0,3.754108191E0
3.856699029E0,-2.418143749E-1,9.097966194E0,3.689464808E0
3.857903766E0,-1.699883193E-1,9.306262016E0,3.744531393E0
3.860766567E0,-1.532289088E-1,9.301473618E0,3.658340216E0
3.862091997E0,-2.466027737E-1,9.021351814E0,3.452438831E0
3.864868952E0,-1.005564705E-1,9.291896820E0,3.878606796E0
3.866178882E0,-1.101332754E-1,9.325415611E0,3.938461781E0
3.868970913E0,-4.453215301E-1,9.030928612E0,3.708618402E0
3.870176651E0,-5.698199868E-1,8.923190117E0,3.636792421E0
3.873073260E0,-3.902548850E-1,9.181763649E0,3.919308186E0
3.874572843E0,-3.711012602E-1,9.296685219E0,4.115632534E0
3.877106721E0,-5.434837937E-1,9.059659004E0,3.955221176E0
3.878428843E0,-5.554547906E-1,8.918401718E0,3.823540211E0
3.880911266E0,-3.878606856E-1,9.030928612E0,3.964797974E0
3.882355189E0,-3.160346150E-1,9.057265282E0,4.039018154E0
3.885277067E0,-4.285621047E-1,8.947132111E0,3.936067581E0
3.886494036E0,-5.147533417E-1,8.935160637E0,3.881000996E0
3.889380106E0,-4.932055473E-1,9.066842079E0,3.921702385E0
3.890587536E0,-5.339069963E-1,9.131484985E0,3.907337189E0
3.893240689E0,-6.440402865E-1,9.069235802E0,3.775655985E0
3.894867228E0,-6.440402865E-1,9.076418877E0,3.739742994E0
3.897022882E0,-5.219359994E-1,9.157821655E0,3.830722809E0
3.898702882E0,-3.998316824E-1,9.121908188E0,3.835511208E0
3.901223382E0,-3.495534360E-1,9.021351814E0,3.739742994E0
3.902813843E0,-3.256114423E-1,8.995016098E0,3.687070608E0
3.905458766E0,-3.040636182E-1,9.047688484E0,3.725377798E0
3.906933843E0,-2.896983922E-1,9.090784073E0,3.797203779E0
3.909410689E0,-3.160346150E-1,9.052476883E0,3.773261786E0
3.911010151E0,-3.950432837E-1,8.997409821E0,3.734954596E0
3.913467728E0,-4.620809257E-1,9.011775017E0,3.751713991E0
3.915279920E0,-4.955997467E-1,9.038111687E0,3.799597979E0
3.917416228E0,-5.554547906E-1,8.997409821E0,3.809175014E0
3.919128843E0,-6.488286853E-1,8.947132111E0,3.816357613E0
3.921711266E0,-7.015010715E-1,8.959102631E0,3.861847401E0
3.923227420E0,-7.493851185E-1,9.018958092E0,3.943250179E0
3.925921574E0,-7.589619160E-1,9.011775017E0,3.983951569E0
3.927316613E0,-7.182605267E-1,8.963891029E0,4.005499363E0
3.930223221E0,-6.607996821E-1,8.908824921E0,4.062960148E0
3.931413074E0,-5.961562395E-1,8.906430244E0,4.144362926E0
3.934326144E0,-5.267243981E-1,8.927978516E0,4.209006786E0
3.935697843E0,-5.027823448E-1,8.894459724E0,4.177882195E0
3.938381413E0,-5.219359994E-1,8.860940933E0,4.120420933E0
3.939549382E0,-5.147533417E-1,8.920795441E0,4.141968727E0
3.942423382E0,-5.051765442E-1,8.983044624E0,4.156333923E0
3.943624305E0,-5.889736414E-1,8.947132111E0,4.106055737E0
3.946552644E0,-7.086837292E-1,8.923190117E0,4.058171749E0
3.947860189E0,-7.302315235E-1,8.997409821E0,4.072536945E0
3.950655682E0,-7.278373241E-1,9.057265282E0,4.046200752E0
3.951851382E0,-7.781155705E-1,8.997409821E0,3.945644379E0
3.954758798E0,-7.924807668E-1,8.930372238E0,3.878606796E0
3.956181574E0,-7.158663273E-1,8.968679428E0,3.938461781E0
3.958801221E0,-6.727706790E-1,9.004592896E0,3.991134167E0
3.959950189E0,-7.541735172E-1,8.942343712E0,3.928884983E0
3.962618420E0,-8.499416113E-1,8.884882927E0,3.878606796E0
3.964161036E0,-8.643068075E-1,8.935160637E0,3.936067581E0
3.966961305E0,-8.738836050E-1,8.980650902E0,3.991134167E0
3.968135651E0,-9.385270476E-1,8.908824921E0,3.940855980E0
3.970519228E0,-9.744400978E-1,8.853757858E0,3.864241600E0
3.972245805E0,-9.385270476E-1,8.925583839E0,3.873818398E0
3.974669074E0,-9.337386489E-1,8.992621422E0,3.904942989E0
3.976560689E0,-9.983820915E-1,8.927978516E0,3.835511208E0
3.978734959E0,-1.019929886E0,8.880094528E0,3.792415380E0
3.980403459E0,-9.361328483E-1,8.920795441E0,3.833117008E0
3.982745920E0,-8.643068075E-1,8.959102631E0,3.876212597E0
3.984469997E0,-8.882488012E-1,8.913613319E0,3.818751812E0
3.987396990E0,-8.667010069E-1,8.923190117E0,3.785232782E0
3.988564612E0,-7.972691655E-1,8.980650902E0,3.813963413E0
3.990994574E0,-7.374141216E-1,8.983044624E0,3.837905407E0
3.992684382E0,-6.919242740E-1,8.935160637E0,3.830722809E0
3.995117574E0,-6.296750307E-1,8.927978516E0,3.823540211E0
3.996958228E0,-5.817909837E-1,8.975862503E0,3.823540211E0
3.999268882E0,-5.674257874E-1,9.026140213E0,3.794809580E0
4.000823420E0,-5.698199868E-1,9.045293808E0,3.766079187E0
4.003301536E0,-5.626373887E-1,9.026140213E0,3.746925592E0
4.004923882E0,-5.410895944E-1,9.026140213E0,3.780444384E0
4.007593228E0,-5.003881454E-1,9.033323288E0,3.835511208E0
4.009029728E0,-4.788403511E-1,9.028534889E0,3.842693806E0
4.011912913E0,-5.123591423E-1,8.985439301E0,3.823540211E0
4.013101651E0,-5.626373887E-1,8.944737434E0,3.845088005E0
4.016015682E0,-5.961562395E-1,8.968679428E0,3.957615376E0
4.017449343E0,-6.344634295E-1,8.959102631E0,4.034229755E0
4.020067105E0,-7.062895298E-1,8.923190117E0,4.079719543E0
4.021409612E0,-7.637503147E-1,8.911218643E0,4.113238335E0
4.024134990E0,-7.757213712E-1,8.894459724E0,4.134786129E0
4.025325959E0,-7.805097699E-1,8.865729332E0,4.170699596E0
4.028236682E0,-7.900865674E-1,8.851364136E0,4.218583584E0
4.029431651E0,-7.805097699E-1,8.839392662E0,4.249708176E0
4.032338759E0,-7.709329724E-1,8.829815865E0,4.276044369E0
4.033604112E0,-7.709329724E-1,8.848969460E0,4.319139957E0
4.036441259E0,-7.589619160E-1,8.851364136E0,4.309563160E0
4.037862112E0,-7.086837292E-1,8.822632790E0,4.268861771E0
4.040476797E0,-6.751648784E-1,8.805873871E0,4.273650169E0
4.041657074E0,-6.584054828E-1,8.801085472E0,4.276044369E0
4.044328305E0,-6.536170840E-1,8.810662270E0,4.266467571E0
4.045928651E0,-6.943184733E-1,8.805873871E0,4.199429989E0
4.048587343E0,-7.445967197E-1,8.805873871E0,4.122815132E0
4.049878112E0,-7.709329724E-1,8.827422142E0,4.082113743E0
4.052371074E0,-7.781155705E-1,8.860940933E0,4.084507942E0
4.054023728E0,-7.948749661E-1,8.870517731E0,4.082113743E0
4.056415382E0,-8.212111592E-1,8.848969460E0,4.027047157E0
4.058229651E0,-8.283938169E-1,8.841787338E0,3.986345768E0
4.060409035E0,-8.044517636E-1,8.848969460E0,3.976768970E0
4.062172305E0,-7.757213712E-1,8.858546257E0,3.991134167E0
4.064523766E0,-7.565677166E-1,8.870517731E0,4.005499363E0
4.066206535E0,-7.278373241E-1,8.889671326E0,4.000710964E0
4.068753920E0,-6.847416759E-1,8.880094528E0,3.960009575E0
4.070299420E0,-6.536170840E-1,8.860940933E0,3.936067581E0
4.072649689E0,-6.153098345E-1,8.858546257E0,3.969586372E0
4.074406266E0,-5.722141862E-1,8.880094528E0,4.003105164E0
4.076834805E0,-5.698199868E-1,8.913613319E0,4.007893562E0
4.078699689E0,-5.937620401E-1,8.925583839E0,3.969586372E0
4.080772651E0,-6.153098345E-1,8.954314232E0,3.948038578E0
4.082452035E0,-6.272808313E-1,8.995016098E0,3.945644379E0
4.084917343E0,-6.009446383E-1,9.026140213E0,3.928884983E0
4.086550035E0,-5.410895944E-1,9.028534889E0,3.902548790E0
4.089356497E0,-4.716577232E-1,9.018958092E0,3.878606796E0
4.090678305E0,-4.165911078E-1,9.033323288E0,3.881000996E0
4.093581566E0,-3.974374831E-1,9.035717010E0,3.864241600E0
4.094782112E0,-4.118026793E-1,9.045293808E0,3.854664803E0
4.097683451E0,-4.213795066E-1,9.076418877E0,3.892971992E0
4.099067805E0,-4.381389022E-1,9.085995674E0,3.931279182E0
4.101727382E0,-4.836287498E-1,9.107542992E0,3.955221176E0
4.102882843E0,-5.075707436E-1,9.167398453E0,3.969586372E0
4.105776843E0,-4.596867263E-1,9.234436035E0,3.969586372E0
4.106978266E0,-3.567360640E-1,9.270348549E0,3.995922565E0
4.109884728E0,-1.867477298E-1,9.196128845E0,4.036623955E0
4.111086920E0,1.029506698E-1,8.995016098E0,3.993528366E0
4.114000605E0,3.830722570E-1,8.738836288E0,3.948038578E0
4.115208189E0,4.309563041E-1,8.544905663E0,3.976768970E0
4.118102874E0,2.035071403E-1,8.542511940E0,4.029441357E0
4.119482035E0,-2.801215947E-1,8.614337921E0,3.890577793E0
4.122116420E0,-1.055842996E0,8.836998940E0,3.665522814E0
4.123290535E0,-1.869871497E0,9.291896820E0,3.603273630E0
4.125936151E0,-2.286462545E0,9.646238327E0,3.416525841E0
4.127392574E0,-2.308010340E0,9.730035782E0,3.148375273E0
4.130258805E0,-2.056619167E0,9.502586365E0,2.856282711E0
4.131543882E0,-1.474828243E0,9.172186852E0,2.693476915E0
4.133881074E0,-7.278373241E-1,8.765172005E0,2.647987127E0
4.135677382E0,-6.512228847E-1,8.623914719E0,2.803610086E0
4.138013074E0,-9.720458984E-1,8.801085472E0,3.186682463E0
4.139868920E0,-1.110909581E0,9.076418877E0,3.210624456E0
4.142019343E0,-1.520318031E0,9.435548782E0,3.562572241E0
4.143738189E0,-1.709460020E0,9.275136948E0,3.746925592E0
4.146130535E0,-1.060631394E0,8.997409821E0,3.857059002E0
4.147849882E0,-4.333505034E-1,9.198522568E0,4.606443882E0
4.150433035E0,4.309562966E-2,8.839392662E0,4.683058739E0
4.152011035E0,1.580173075E-1,8.147468567E0,4.175487995E0
4.154360112E0,-1.651999205E-1,8.197746277E0,4.635174274E0
4.156033305E0,-5.267243981E-1,8.427590370E0,5.135562420E0
4.158431882E0,-1.556231141E0,8.714894295E0,5.446808815E0
4.160322805E0,-2.166752577E0,8.856152534E0,5.322310448E0
4.162431766E0,-2.109291792E0,9.062053680E0,5.099649429E0
4.164149728E0,-1.503558636E0,9.289502144E0,5.125985622E0
4.166602497E0,-6.081272364E-1,8.961497307E0,4.783615112E0
4.168240458E0,2.513911724E-1,8.389283180E0,4.256890774E0
4.170977382E0,8.858546019E-1,8.276755333E0,4.003105164E0
4.172328382E0,1.209071875E0,8.674192429E0,3.830722809E0
4.175254335E0,9.145850539E-1,9.181763649E0,3.469198227E0
4.176548882E0,7.661445439E-2,9.414001465E0,2.875436306E0
4.179357412E0,-7.493851185E-1,9.428366661E0,2.451662540E0
4.180751228E0,-1.120486379E0,9.569623947E0,2.643198729E0
4.183413374E0,-1.060631394E0,9.698910713E0,3.040636063E0
4.184667574E0,-9.217676520E-1,9.557653427E0,3.057395458E0
4.187481451E0,-8.164227605E-1,9.318233490E0,2.803610086E0
4.188655420E0,-5.578489900E-1,9.167398453E0,2.676717520E0
4.191584835E0,-2.035071403E-1,9.145850182E0,2.978386879E0
4.192795228E0,4.788403399E-3,9.074024200E0,3.562572241E0
4.195688566E0,1.915361360E-2,8.868123055E0,3.991134167E0
4.196866305E0,-9.337386489E-2,8.765172005E0,4.276044369E0
4.199791412E0,-2.944868207E-1,8.803479195E0,4.534617901E0
4.201260920E0,-5.075707436E-1,8.801085472E0,4.742913723E0
4.203819035E0,-6.440402865E-1,8.705317497E0,4.977545261E0
4.204976035E0,-6.727706790E-1,8.556877136E0,5.236119270E0
4.207658151E0,-6.536170840E-1,8.461109161E0,5.379771233E0
4.209105228E0,-6.631938815E-1,8.525752068E0,5.293580055E0
4.212004489E0,-7.565677166E-1,8.726864815E0,4.953603268E0
4.213237997E0,-9.361328483E-1,8.911218643E0,4.491522312E0
4.215602612E0,-1.060631394E0,9.014169693E0,4.170699596E0
4.217292766E0,-9.169792533E-1,9.023746490E0,4.024652958E0
4.219685497E0,-7.445967197E-1,8.980650902E0,3.914519787E0
4.221556420E0,-5.674257874E-1,8.990227699E0,3.612850428E0
4.223699035E0,-3.615244627E-1,9.148244858E0,3.280056238E0
4.225406151E0,-1.963245422E-1,9.284713745E0,3.035847664E0
4.227812074E0,-1.244984865E-1,9.275136948E0,2.949656487E0
