"Time (s)","Gyroscope x (rad/s)","Gyroscope y (rad/s)","Gyroscope z (rad/s)"
9.190236000E-3,-2.450108156E-2,-9.054748341E-3,8.522115648E-3
1.066034600E-2,-2.450108156E-2,-9.054748341E-3,8.522115648E-3
1.325739000E-2,-2.450108156E-2,-9.054748341E-3,8.522115648E-3
1.461215400E-2,-2.450108156E-2,-9.054748341E-3,8.522115648E-3
1.735992800E-2,-2.450108156E-2,-9.054748341E-3,8.522115648E-3
1.852930800E-2,-2.450108156E-2,-9.054748341E-3,8.522115648E-3
2.136800000E-2,-2.450108156E-2,-9.054748341E-3,8.522115648E-3
2.256919200E-2,-2.450108156E-2,-9.054748341E-3,8.522115648E-3
2.548223100E-2,-2.450108156E-2,-9.054748341E-3,8.522115648E-3
2.679726900E-2,-2.450108156E-2,-9.054748341E-3,8.522115648E-3
2.966758200E-2,-2.450108156E-2,-9.054748341E-3,8.522115648E-3
3.078215400E-2,-2.450108156E-2,-9.054748341E-3,8.522115648E-3
3.377073600E-2,-2.450108156E-2,-9.054748341E-3,8.522115648E-3
3.516203800E-2,-2.450108156E-2,-9.054748341E-3,8.522115648E-3
3.779807700E-2,-2.450108156E-2,-9.054748341E-3,8.522115648E-3
3.908026900E-2,-2.450108156E-2,-9.054748341E-3,8.522115648E-3
4.164003800E-2,9.534116834E-2,5.432848632E-2,2.982740477E-2
4.310246100E-2,8.202536404E-2,2.609897964E-2,1.331580617E-2
4.591492300E-2,7.456851006E-2,-2.077265643E-2,-7.456851192E-3
4.729523100E-2,6.711166352E-2,-5.858954415E-2,-1.917476021E-2
4.967888500E-2,4.793690145E-2,-5.912217870E-2,-1.544633508E-2
5.145830800E-2,2.183792181E-2,-2.556634694E-2,6.924218964E-3
5.378869200E-2,-3.728425596E-3,1.864212751E-2,3.249056637E-2
5.557957700E-2,-1.970739290E-2,4.261057824E-2,4.420847446E-2
5.788630800E-2,-2.183792181E-2,3.302319720E-2,4.207794741E-2
5.956161500E-2,-3.249056637E-2,3.195793368E-3,2.556634694E-2
6.199411500E-2,-5.699164793E-2,-1.970739290E-2,1.012001187E-2
6.369096100E-2,-9.214537591E-2,-2.663161233E-2,-2.130528912E-3
6.659596600E-2,-1.134506613E-1,-2.769687586E-2,-1.118527725E-2
6.781150000E-2,-1.017327532E-1,-3.089267015E-2,-1.331580617E-2
7.013734600E-2,-6.924218684E-2,-2.396845073E-2,-5.326322280E-3
7.185030800E-2,-3.515372798E-2,-1.065264456E-3,1.012001187E-2
7.425526900E-2,-1.171790902E-2,2.396845073E-2,2.876213938E-2
7.606134600E-2,5.326322280E-4,4.900216311E-2,4.154531285E-2
7.838853800E-2,5.326322280E-3,4.580637068E-2,4.474110901E-2
8.007207700E-2,1.118527725E-2,1.810949668E-2,3.515372798E-2
8.250088400E-2,1.757686399E-2,-2.290318534E-2,1.757686399E-2
8.414100000E-2,2.450108156E-2,-5.592638254E-2,0.000000000E0
8.688700000E-2,2.556634694E-2,-5.858954415E-2,-6.391586736E-3
8.824796100E-2,2.290318534E-2,-2.876213938E-2,-1.065264456E-3
9.115384600E-2,2.822950855E-2,1.171790902E-2,1.225054078E-2
9.234880800E-2,4.154531285E-2,3.781688958E-2,2.503371425E-2
9.527792300E-2,5.805691332E-2,4.261057824E-2,2.822950855E-2
9.659488400E-2,6.072007492E-2,3.142530099E-2,2.769687586E-2
9.935542300E-2,4.154531285E-2,1.810949668E-2,2.396845073E-2
1.005827310E-1,8.522115648E-3,3.195793368E-3,1.917476021E-2
1.034523840E-1,-2.663161233E-2,-1.544633508E-2,9.054748341E-3
1.046504230E-1,-4.846953228E-2,-3.888215125E-2,0.000000000E0
1.075907740E-1,-5.326322466E-2,-5.645901710E-2,-5.858954508E-3
1.087778840E-1,-5.379585549E-2,-5.326322466E-2,-2.663161140E-3
1.116791150E-1,-4.740426689E-2,-2.609897964E-2,1.065264456E-2
1.129886920E-1,-4.207794741E-2,1.171790902E-2,3.036003746E-2
1.157975430E-1,-3.302319720E-2,4.048004746E-2,4.154531285E-2
1.172104610E-1,-2.450108156E-2,2.450108156E-2,3.568635881E-2
1.198918080E-1,-1.864212751E-2,-1.065264456E-3,2.183792181E-2
1.211693840E-1,-1.651159860E-2,-2.769687586E-2,9.054748341E-3
1.237441540E-1,-2.024002373E-2,-3.888215125E-2,3.728425596E-3
1.251991150E-1,-1.917476021E-2,-3.249056637E-2,2.130528912E-3
1.281094660E-1,-9.587380104E-3,-1.331580617E-2,8.522115648E-3
1.293790380E-1,6.391586736E-3,5.326322280E-3,1.810949668E-2
1.317605770E-1,2.609897964E-2,1.917476021E-2,2.876213938E-2
1.334403840E-1,3.675162420E-2,2.822950855E-2,3.249056637E-2
1.359867310E-1,3.728425503E-2,2.929477207E-2,3.568635881E-2
1.376614610E-1,2.609897964E-2,2.343581803E-2,3.142530099E-2
1.399376540E-1,1.118527725E-2,1.597896684E-3,2.130528912E-2
1.416349230E-1,4.261057824E-3,-2.343581803E-2,7.456851192E-3
1.439926540E-1,5.326322280E-4,-4.207794741E-2,-2.663161140E-3
1.456780000E-1,-2.130528912E-3,-4.261057824E-2,-4.793690052E-3
1.481191150E-1,-6.391586736E-3,-2.077265643E-2,4.793690052E-3
1.497012310E-1,-6.391586736E-3,9.587380104E-3,1.704423130E-2
1.521107690E-1,-6.924218964E-3,3.408846259E-2,2.609897964E-2
1.538402690E-1,-5.326322280E-3,3.675162420E-2,2.982740477E-2
1.562530000E-1,-7.989482954E-3,1.810949668E-2,2.716424316E-2
1.581003080E-1,-1.864212751E-2,-7.456851192E-3,1.970739290E-2
1.602353460E-1,-3.355583176E-2,-2.822950855E-2,9.587380104E-3
1.619233840E-1,-4.420847446E-2,-3.941478580E-2,1.065264456E-3
1.644728840E-1,-5.113269389E-2,-3.621899337E-2,-5.326322280E-3
1.660265000E-1,-4.687163606E-2,-2.503371425E-2,-9.587380104E-3
1.687816920E-1,-2.982740477E-2,-4.793690052E-3,-4.793690052E-3
1.701473080E-1,-1.597896591E-2,1.970739290E-2,5.326322280E-3
1.730057350E-1,-3.195793368E-3,3.621899337E-2,2.450108156E-2
1.742441540E-1,5.326322280E-4,2.822950855E-2,2.876213938E-2
1.771093510E-1,1.597896684E-3,4.793690052E-3,2.396845073E-2
1.784935380E-1,5.326322280E-4,-1.970739290E-2,1.012001187E-2
1.811551200E-1,-4.793690052E-3,-3.675162420E-2,0.000000000E0
1.824215000E-1,-7.456851192E-3,-4.207794741E-2,-6.391586736E-3
1.852235040E-1,-1.278317347E-2,-2.822950855E-2,-1.597896684E-3
1.864475000E-1,-1.118527725E-2,-1.012001187E-2,9.587380104E-3
1.893266580E-1,-1.065264456E-3,7.456851192E-3,2.183792181E-2
1.905523070E-1,1.384843793E-2,9.054748341E-3,2.982740477E-2
1.934289270E-1,2.556634694E-2,1.065264456E-3,3.089267015E-2
1.946517310E-1,2.929477207E-2,-1.118527725E-2,2.822950855E-2
1.975323120E-1,2.876213938E-2,-2.396845073E-2,1.917476021E-2
1.989816920E-1,2.237055451E-2,-2.822950855E-2,1.225054078E-2
2.015667350E-1,1.331580617E-2,-2.609897964E-2,3.728425596E-3
2.028094230E-1,4.793690052E-3,-1.704423130E-2,2.663161140E-3
2.054792310E-1,5.326322280E-4,-4.261057824E-3,5.326322280E-4
2.068910000E-1,-5.326322280E-3,1.065264456E-2,4.261057824E-3
2.097373120E-1,-1.171790902E-2,1.864212751E-2,1.278317347E-2
2.109877310E-1,-1.810949668E-2,1.331580617E-2,1.704423130E-2
2.134026540E-1,-2.769687586E-2,0.000000000E0,1.757686399E-2
2.152011150E-1,-3.195793182E-2,-1.917476021E-2,1.278317347E-2
2.175985000E-1,-3.941478580E-2,-3.621899337E-2,8.522115648E-3
2.193642690E-1,-4.048004746E-2,-4.314320907E-2,9.054748341E-3
2.215181540E-1,-4.207794741E-2,-3.568635881E-2,6.924218964E-3
2.232052310E-1,-3.781688958E-2,-2.183792181E-2,5.858954508E-3
2.255783460E-1,-2.503371425E-2,-5.326322280E-3,3.195793368E-3
2.273905000E-1,-1.171790902E-2,7.989482954E-3,0.000000000E0
2.298539230E-1,-1.065264456E-3,1.438106969E-2,-5.326322280E-4
2.314603070E-1,9.054748341E-3,1.757686399E-2,-3.195793368E-3
2.338141920E-1,2.130528912E-3,3.195793368E-3,-1.065264456E-3
2.355511920E-1,0.000000000E0,-1.065264456E-2,0.000000000E0
2.380786920E-1,2.130528912E-3,-2.982740477E-2,3.195793368E-3
2.400837310E-1,7.456851192E-3,-4.101268202E-2,1.597896684E-3
2.420036150E-1,1.171790902E-2,-4.207794741E-2,1.597896684E-3
2.439331150E-1,1.864212751E-2,-2.822950855E-2,2.130528912E-3
2.464120000E-1,2.343581803E-2,-1.225054078E-2,4.261057824E-3
2.477612690E-1,2.876213938E-2,3.728425596E-3,5.326322280E-3
2.504261920E-1,3.462109342E-2,9.054748341E-3,2.663161140E-3
2.518162310E-1,3.568635881E-2,5.858954508E-3,2.130528912E-3
2.546857730E-1,3.249056637E-2,-2.663161140E-3,-3.728425596E-3
2.559653840E-1,2.609897964E-2,-1.278317347E-2,-9.054748341E-3
2.587887350E-1,1.704423130E-2,-2.343581803E-2,-1.065264456E-2
2.602006540E-1,1.171790902E-2,-2.716424316E-2,-9.054748341E-3
2.628451580E-1,1.171790902E-2,-2.716424316E-2,-6.391586736E-3
2.640617690E-1,1.065264456E-2,-2.130528912E-2,-2.130528912E-3
2.669129660E-1,1.225054078E-2,-9.587380104E-3,2.130528912E-3
2.682151540E-1,7.989482954E-3,-5.326322280E-4,8.522115648E-3
2.710168500E-1,2.663161140E-3,5.326322280E-3,9.587380104E-3
2.722899610E-1,-7.456851192E-3,5.326322280E-4,6.924218964E-3
2.751204270E-1,-1.065264456E-2,-3.728425596E-3,1.065264456E-3
2.763565770E-1,-1.757686399E-2,-1.597896591E-2,-7.989482954E-3
2.792238890E-1,-2.130528912E-2,-2.290318534E-2,-1.278317347E-2
2.806302310E-1,-2.663161233E-2,-1.970739290E-2,-1.278317347E-2
2.832674660E-1,-3.089267015E-2,-6.924218964E-3,-7.989482954E-3
2.846536150E-1,-2.982740477E-2,1.597896684E-3,-3.195793368E-3
2.873000380E-1,-2.343581803E-2,2.663161140E-3,3.728425596E-3
2.885958070E-1,-2.396845073E-2,2.130528912E-3,9.587380104E-3
2.914390810E-1,-2.130528912E-2,-7.989482954E-3,1.012001187E-2
2.926812310E-1,-2.130528912E-2,-1.917476021E-2,7.456851192E-3
2.950664230E-1,-2.237055451E-2,-2.450108156E-2,2.663161140E-3
2.967657300E-1,-1.864212751E-2,-2.822950855E-2,-1.597896684E-3
2.992479610E-1,-1.118527725E-2,-2.343581803E-2,-4.793690052E-3
3.012720000E-1,3.195793368E-3,-1.757686399E-2,-5.858954508E-3
3.032995000E-1,1.438106969E-2,-7.456851192E-3,-3.728425596E-3
3.049164230E-1,2.237055451E-2,3.195793368E-3,2.663161140E-3
3.072605770E-1,3.408846259E-2,7.989482954E-3,5.326322280E-3
3.090051150E-1,3.408846259E-2,5.858954508E-3,6.391586736E-3
3.118627350E-1,3.621899337E-2,-2.130528912E-3,0.000000000E0
3.132034230E-1,2.769687586E-2,-1.331580617E-2,-4.261057824E-3
3.155901920E-1,1.864212751E-2,-1.970739290E-2,-6.924218964E-3
3.173643460E-1,6.924218964E-3,-2.183792181E-2,-6.924218964E-3
3.197688460E-1,-4.793690052E-3,-2.024002373E-2,-4.261057824E-3
3.216408070E-1,-1.171790902E-2,-1.651159860E-2,-2.130528912E-3
3.236715000E-1,-1.384843793E-2,-1.438106969E-2,-5.326322280E-4
3.253860000E-1,-1.118527725E-2,-1.384843793E-2,1.597896684E-3
3.277832690E-1,-9.587380104E-3,-1.012001187E-2,2.130528912E-3
3.299011150E-1,-1.331580617E-2,-4.793690052E-3,2.130528912E-3
3.321328460E-1,-1.810949668E-2,0.000000000E0,1.597896684E-3
3.335882690E-1,-2.396845073E-2,-2.130528912E-3,0.000000000E0
3.363821580E-1,-2.716424316E-2,-5.326322280E-3,-5.858954508E-3
3.376848840E-1,-2.876213938E-2,-5.858954508E-3,-3.728425596E-3
3.404855810E-1,-2.982740477E-2,-5.858954508E-3,-7.456851192E-3
3.419226150E-1,-2.876213938E-2,-5.326322280E-3,-2.130528912E-3
3.445381580E-1,-2.769687586E-2,0.000000000E0,1.597896684E-3
3.457592300E-1,-2.450108156E-2,2.663161140E-3,7.456851192E-3
3.486068500E-1,-1.651159860E-2,3.195793368E-3,1.225054078E-2
3.500038840E-1,-1.012001187E-2,1.597896684E-3,1.544633508E-2
3.527097340E-1,0.000000000E0,-2.130528912E-3,1.704423130E-2
3.540225770E-1,1.597896684E-3,-2.130528912E-3,1.651159860E-2
3.568126580E-1,8.522115648E-3,-1.065264456E-3,1.491370238E-2
3.580791150E-1,1.065264456E-2,1.065264456E-3,7.989482954E-3
3.609158500E-1,1.278317347E-2,4.793690052E-3,5.326322280E-3
3.623738460E-1,1.810949668E-2,7.989482954E-3,4.261057824E-3
3.649515810E-1,1.757686399E-2,1.225054078E-2,6.391586736E-3
3.663958840E-1,1.491370238E-2,1.491370238E-2,1.118527725E-2
3.688664610E-1,1.225054078E-2,1.171790902E-2,1.597896591E-2
3.703458070E-1,5.858954508E-3,2.130528912E-3,1.597896591E-2
3.731231960E-1,7.456851192E-3,-6.924218964E-3,1.171790902E-2
3.743821540E-1,5.326322280E-3,-1.544633508E-2,5.326322280E-3
3.767937300E-1,1.597896684E-3,-1.278317347E-2,3.195793368E-3
3.784424610E-1,-3.195793368E-3,-3.728425596E-3,1.065264456E-3
3.808463840E-1,-6.391586736E-3,5.858954508E-3,2.130528912E-3
3.827645770E-1,-8.522115648E-3,1.331580617E-2,2.663161140E-3
3.849350380E-1,-4.261057824E-3,1.651159860E-2,2.663161140E-3
3.867541540E-1,-4.261057824E-3,1.491370238E-2,4.793690052E-3
3.890257690E-1,-5.858954508E-3,1.012001187E-2,3.728425596E-3
3.907355380E-1,-8.522115648E-3,4.793690052E-3,3.195793368E-3
3.932586920E-1,-9.587380104E-3,-1.597896684E-3,3.728425596E-3
3.947879230E-1,-1.065264456E-2,-5.326322280E-3,4.793690052E-3
3.972243070E-1,-1.065264456E-2,-6.924218964E-3,7.989482954E-3
3.989047690E-1,-1.225054078E-2,-3.195793368E-3,9.054748341E-3
4.017033840E-1,-8.522115648E-3,2.130528912E-3,7.456851192E-3
4.034941150E-1,-5.858954508E-3,6.924218964E-3,5.858954508E-3
4.054437690E-1,-1.597896684E-3,1.225054078E-2,3.728425596E-3
4.070262690E-1,2.663161140E-3,1.118527725E-2,5.858954508E-3
4.095585380E-1,3.728425596E-3,3.195793368E-3,2.663161140E-3
4.111647300E-1,6.391586736E-3,-1.597896684E-3,1.597896684E-3
4.138555380E-1,3.728425596E-3,-5.326322280E-3,5.326322280E-4
4.152289230E-1,5.326322280E-4,-2.663161140E-3,1.597896684E-3
4.180775800E-1,-3.728425596E-3,5.326322280E-4,5.326322280E-3
4.193407690E-1,-4.793690052E-3,2.130528912E-3,3.728425596E-3
4.221806960E-1,-3.195793368E-3,2.130528912E-3,2.130528912E-3
4.235966150E-1,-5.858954508E-3,-2.130528912E-3,1.597896684E-3
4.262256960E-1,-8.522115648E-3,-1.597896684E-3,2.130528912E-3
4.274363070E-1,-1.278317347E-2,-1.065264456E-3,3.728425596E-3
4.302931570E-1,-1.118527725E-2,-2.663161140E-3,5.326322280E-4
4.316398460E-1,-1.597896591E-2,-4.261057824E-3,0.000000000E0
4.343950030E-1,-1.065264456E-2,-6.391586736E-3,-5.326322280E-4
4.356896150E-1,-4.793690052E-3,-6.391586736E-3,1.597896684E-3
4.384979260E-1,-1.065264456E-3,-3.195793368E-3,3.195793368E-3
4.397871530E-1,3.728425596E-3,-1.065264456E-3,5.326322280E-3
4.426009260E-1,5.858954508E-3,4.261057824E-3,5.326322280E-3
4.443101920E-1,6.391586736E-3,6.391586736E-3,5.858954508E-3
4.466369650E-1,5.858954508E-3,7.989482954E-3,5.858954508E-3
4.479030000E-1,5.326322280E-3,4.793690052E-3,5.858954508E-3
4.506200380E-1,4.261057824E-3,-1.065264456E-3,2.663161140E-3
4.520161920E-1,4.793690052E-3,-5.326322280E-3,3.195793368E-3
4.548082340E-1,6.391586736E-3,-9.054748341E-3,5.326322280E-3
4.560560000E-1,5.326322280E-3,-4.793690052E-3,6.924218964E-3
4.584531150E-1,8.522115648E-3,-4.793690052E-3,6.924218964E-3
4.602905770E-1,9.054748341E-3,-1.597896684E-3,4.793690052E-3
4.627860380E-1,1.065264456E-2,4.261057824E-3,4.793690052E-3
4.645025000E-1,7.456851192E-3,1.171790902E-2,5.326322280E-3
4.666018070E-1,5.326322280E-4,1.225054078E-2,5.858954508E-3
4.682981920E-1,-4.793690052E-3,1.012001187E-2,4.261057824E-3
4.706442300E-1,-1.012001187E-2,-4.261057824E-3,2.130528912E-3
4.723793840E-1,-1.118527725E-2,-7.456851192E-3,-5.326322280E-4
4.749430770E-1,-1.278317347E-2,-1.012001187E-2,3.195793368E-3
4.765435770E-1,-1.384843793E-2,-7.989482954E-3,4.793690052E-3
4.788654610E-1,-1.171790902E-2,-2.130528912E-3,5.858954508E-3
4.805835380E-1,-5.858954508E-3,5.326322280E-3,6.924218964E-3
4.830824610E-1,-2.130528912E-3,1.118527725E-2,5.858954508E-3
4.848950380E-1,-1.597896684E-3,1.331580617E-2,6.924218964E-3
4.870379610E-1,0.000000000E0,1.278317347E-2,1.597896684E-3
4.887914610E-1,-1.065264456E-3,4.793690052E-3,-2.130528912E-3
4.911750770E-1,-2.663161140E-3,5.326322280E-4,-1.597896684E-3
4.928061150E-1,-1.597896684E-3,-5.326322280E-4,-2.130528912E-3
4.955646150E-1,-5.326322280E-4,-3.195793368E-3,5.326322280E-4
4.969948460E-1,1.597896684E-3,-1.597896684E-3,2.663161140E-3
4.997511950E-1,4.261057824E-3,0.000000000E0,2.663161140E-3
5.012564610E-1,5.858954508E-3,2.663161140E-3,5.858954508E-3
5.038540800E-1,3.728425596E-3,9.054748341E-3,7.989482954E-3
5.052871920E-1,3.728425596E-3,6.391586736E-3,6.391586736E-3
5.079107340E-1,2.130528912E-3,2.663161140E-3,1.597896684E-3
5.093218070E-1,0.000000000E0,-2.663161140E-3,-2.663161140E-3
5.119785420E-1,0.000000000E0,-3.195793368E-3,-5.326322280E-3
5.132694230E-1,-2.663161140E-3,-3.728425596E-3,-4.261057824E-3
5.160806570E-1,5.326322280E-4,-2.130528912E-3,-4.261057824E-3
5.173934610E-1,2.130528912E-3,1.065264456E-3,-1.065264456E-3
5.201833110E-1,6.924218964E-3,2.130528912E-3,0.000000000E0
5.216764610E-1,7.456851192E-3,4.261057824E-3,2.663161140E-3
5.242865800E-1,9.587380104E-3,6.391586736E-3,3.195793368E-3
5.257966530E-1,7.456851192E-3,3.728425596E-3,2.130528912E-3
5.283283880E-1,6.391586736E-3,-3.195793368E-3,-2.130528912E-3
5.297612690E-1,5.326322280E-3,-5.326322280E-3,-3.195793368E-3
5.322114230E-1,3.728425596E-3,-6.924218964E-3,-3.195793368E-3
5.336976530E-1,6.391586736E-3,-5.858954508E-3,-1.597896684E-3
5.364991570E-1,9.587380104E-3,-3.728425596E-3,5.326322280E-4
5.377636530E-1,1.278317347E-2,1.065264456E-3,1.065264456E-3
5.401515760E-1,1.438106969E-2,5.326322280E-3,4.261057824E-3
5.418626530E-1,1.491370238E-2,5.858954508E-3,5.858954508E-3
5.443231920E-1,1.065264456E-2,3.195793368E-3,4.261057824E-3
5.462646150E-1,1.118527725E-2,-1.065264456E-3,1.065264456E-3
5.483545000E-1,9.054748341E-3,-4.793690052E-3,-2.663161140E-3
5.501181530E-1,3.728425596E-3,-9.054748341E-3,-5.326322280E-3
5.523822690E-1,0.000000000E0,-6.924218964E-3,-4.793690052E-3
5.540850380E-1,-2.130528912E-3,-6.391586736E-3,-4.261057824E-3
5.569197720E-1,-2.130528912E-3,-2.663161140E-3,-2.130528912E-3
5.581776530E-1,-2.663161140E-3,5.326322280E-4,-2.130528912E-3
5.606085000E-1,-4.261057824E-3,5.326322280E-4,-1.597896684E-3
5.623370380E-1,-7.989482954E-3,1.597896684E-3,-5.326322280E-4
5.647158840E-1,-7.456851192E-3,-2.663161140E-3,-4.261057824E-3
5.668330380E-1,-9.054748341E-3,-2.663161140E-3,-5.858954508E-3
5.688447690E-1,-1.065264456E-2,-5.858954508E-3,-6.924218964E-3
5.704126920E-1,-1.012001187E-2,-4.261057824E-3,-8.522115648E-3
5.729852300E-1,-9.054748341E-3,-4.793690052E-3,-4.793690052E-3
5.744807300E-1,-5.326322280E-3,-2.130528912E-3,-3.195793368E-3
5.772683070E-1,-2.663161140E-3,-1.597896684E-3,-3.195793368E-3
5.786799610E-1,-2.130528912E-3,5.326322280E-4,0.000000000E0
5.814367340E-1,5.326322280E-3,5.326322280E-4,1.597896684E-3
5.828618460E-1,5.326322280E-3,-1.065264456E-3,1.597896684E-3
5.855402340E-1,1.118527725E-2,-3.728425596E-3,0.000000000E0
5.870823840E-1,1.331580617E-2,-4.261057824E-3,-2.130528912E-3
5.895920410E-1,1.491370238E-2,-5.326322280E-3,-1.597896684E-3
5.908580380E-1,1.757686399E-2,-5.326322280E-4,5.326322280E-4
5.936606570E-1,1.810949668E-2,0.000000000E0,2.663161140E-3
5.949799610E-1,1.757686399E-2,2.130528912E-3,2.663161140E-3
5.977638870E-1,1.810949668E-2,1.597896684E-3,3.195793368E-3
5.990822690E-1,1.704423130E-2,5.326322280E-4,2.130528912E-3
6.018670030E-1,1.278317347E-2,-1.597896684E-3,1.065264456E-3
6.032120000E-1,6.924218964E-3,-2.663161140E-3,-5.326322280E-4
6.059701570E-1,3.728425596E-3,-3.195793368E-3,-2.130528912E-3
6.074433070E-1,-5.326322280E-4,-6.391586736E-3,-5.326322280E-4
6.100071180E-1,-4.793690052E-3,-7.456851192E-3,-3.195793368E-3
6.112875760E-1,-4.793690052E-3,-4.261057824E-3,-2.130528912E-3
6.138901530E-1,-6.391586736E-3,-4.261057824E-3,-2.663161140E-3
6.154314610E-1,-5.858954508E-3,-2.663161140E-3,-2.663161140E-3
6.181765800E-1,-6.391586736E-3,-3.195793368E-3,-5.326322280E-4
6.195813840E-1,-5.858954508E-3,-2.130528912E-3,-2.130528912E-3
6.218289230E-1,-4.793690052E-3,-4.261057824E-3,-1.065264456E-3
6.235945760E-1,-4.793690052E-3,-5.326322280E-3,-3.728425596E-3
6.259774230E-1,-4.261057824E-3,-7.989482954E-3,-4.793690052E-3
6.278316150E-1,-4.793690052E-3,-9.587380104E-3,-7.456851192E-3
6.299634610E-1,-1.597896684E-3,-7.456851192E-3,-5.326322280E-3
6.316456920E-1,1.065264456E-3,-7.456851192E-3,-7.456851192E-3
6.340414230E-1,5.858954508E-3,-6.924218964E-3,-9.587380104E-3
6.357821530E-1,7.456851192E-3,-4.793690052E-3,-7.989482954E-3
6.382731530E-1,7.989482954E-3,-5.326322280E-3,-9.054748341E-3
6.400014230E-1,9.587380104E-3,-5.858954508E-3,-8.522115648E-3
6.422320760E-1,7.456851192E-3,-7.456851192E-3,-1.012001187E-2
6.441121150E-1,7.989482954E-3,-1.278317347E-2,-1.225054078E-2
6.464148070E-1,5.326322280E-3,-1.438106969E-2,-1.491370238E-2
6.483389990E-1,4.793690052E-3,-1.651159860E-2,-1.331580617E-2
6.504019230E-1,1.597896684E-3,-1.544633508E-2,-1.438106969E-2
6.521544230E-1,5.326322280E-3,-1.331580617E-2,-1.225054078E-2
6.547654610E-1,4.261057824E-3,-1.864212751E-2,-1.065264456E-2
6.562061150E-1,3.195793368E-3,-1.757686399E-2,-1.225054078E-2
6.590166950E-1,4.261057824E-3,-1.864212751E-2,-1.225054078E-2
6.603198460E-1,1.065264456E-3,-2.183792181E-2,-1.278317347E-2
6.631198870E-1,2.130528912E-3,-2.450108156E-2,-1.384843793E-2
6.645059990E-1,5.326322280E-4,-2.556634694E-2,-1.651159860E-2
6.672223100E-1,0.000000000E0,-2.503371425E-2,-1.864212751E-2
6.687314990E-1,5.326322280E-4,-2.556634694E-2,-2.130528912E-2
6.712675020E-1,5.326322280E-4,-2.290318534E-2,-1.970739290E-2
6.725360760E-1,2.663161140E-3,-2.396845073E-2,-2.077265643E-2
6.753353490E-1,3.195793368E-3,-2.343581803E-2,-2.077265643E-2
6.766832690E-1,4.793690052E-3,-2.396845073E-2,-2.077265643E-2
6.794381950E-1,7.456851192E-3,-2.609897964E-2,-2.343581803E-2
6.807523840E-1,5.858954508E-3,-2.982740477E-2,-2.556634694E-2
6.835411950E-1,6.391586736E-3,-3.249056637E-2,-2.663161233E-2
6.848006530E-1,3.195793368E-3,-3.302319720E-2,-2.929477207E-2
6.876437330E-1,5.326322280E-3,-3.408846259E-2,-3.089267015E-2
6.891878460E-1,6.924218964E-3,-3.302319720E-2,-3.142530099E-2
6.916787330E-1,1.012001187E-2,-3.195793182E-2,-3.142530099E-2
6.929017300E-1,1.065264456E-2,-3.142530099E-2,-3.249056637E-2
6.955332690E-1,1.331580617E-2,-3.515372798E-2,-3.249056637E-2
6.969940380E-1,1.651159860E-2,-3.302319720E-2,-2.982740477E-2
6.998489250E-1,1.597896591E-2,-3.355583176E-2,-3.195793182E-2
7.010850760E-1,1.651159860E-2,-3.728425503E-2,-3.355583176E-2
7.035264230E-1,1.704423130E-2,-4.048004746E-2,-3.515372798E-2
7.053121530E-1,2.024002373E-2,-4.314320907E-2,-3.462109342E-2
7.078418460E-1,1.864212751E-2,-4.154531285E-2,-3.302319720E-2
7.096039610E-1,2.130528912E-2,-4.261057824E-2,-3.568635881E-2
7.116468840E-1,2.343581803E-2,-4.048004746E-2,-3.515372798E-2
7.133069610E-1,2.503371425E-2,-4.101268202E-2,-3.462109342E-2
7.157477300E-1,2.503371425E-2,-4.101268202E-2,-3.515372798E-2
7.174352690E-1,2.343581803E-2,-4.101268202E-2,-3.302319720E-2
7.200614230E-1,2.343581803E-2,-4.154531285E-2,-3.621899337E-2
7.217432690E-1,1.917476021E-2,-4.207794741E-2,-3.515372798E-2
7.239033460E-1,1.597896591E-2,-4.154531285E-2,-3.515372798E-2
7.256695760E-1,1.278317347E-2,-4.420847446E-2,-3.834952042E-2
7.280633070E-1,1.331580617E-2,-4.580637068E-2,-3.834952042E-2
7.298954220E-1,1.278317347E-2,-4.367584363E-2,-3.888215125E-2
7.321114990E-1,8.522115648E-3,-4.207794741E-2,-3.728425503E-2
7.337890380E-1,7.989482954E-3,-3.994741663E-2,-3.728425503E-2
7.362741920E-1,6.924218964E-3,-3.568635881E-2,-3.781688958E-2
7.379442690E-1,3.728425596E-3,-3.675162420E-2,-3.621899337E-2
7.406805790E-1,5.326322280E-3,-3.994741663E-2,-3.675162420E-2
7.419648460E-1,5.858954508E-3,-4.633900523E-2,-3.994741663E-2
7.447818870E-1,5.326322280E-3,-4.793690145E-2,-3.728425503E-2
7.465280380E-1,5.858954508E-3,-4.953479767E-2,-3.728425503E-2
7.488847330E-1,4.793690052E-3,-4.633900523E-2,-3.515372798E-2
7.503481150E-1,5.858954508E-3,-3.994741663E-2,-3.515372798E-2
7.529400410E-1,1.012001187E-2,-3.728425503E-2,-3.302319720E-2
7.543065760E-1,1.012001187E-2,-3.462109342E-2,-3.195793182E-2
7.570073100E-1,1.225054078E-2,-3.568635881E-2,-3.515372798E-2
7.583303460E-1,1.331580617E-2,-3.834952042E-2,-3.515372798E-2
7.611085410E-1,1.118527725E-2,-4.101268202E-2,-3.462109342E-2
7.624110380E-1,1.012001187E-2,-4.633900523E-2,-3.408846259E-2
7.652101560E-1,1.597896591E-2,-4.953479767E-2,-3.462109342E-2
7.666710380E-1,2.077265643E-2,-4.793690145E-2,-3.462109342E-2
7.693118480E-1,2.130528912E-2,-3.781688958E-2,-3.142530099E-2
7.707290380E-1,2.024002373E-2,-3.195793182E-2,-3.036003746E-2
7.733525020E-1,2.290318534E-2,-2.769687586E-2,-3.036003746E-2
7.745799990E-1,2.130528912E-2,-2.130528912E-2,-3.408846259E-2
7.773535380E-1,1.438106969E-2,-1.597896591E-2,-3.621899337E-2
7.787106530E-1,-5.326322280E-4,-2.876213938E-2,-3.036003746E-2
7.815218480E-1,-5.858954508E-3,-3.089267015E-2,-3.142530099E-2
7.828060380E-1,-8.522115648E-3,-3.142530099E-2,-3.462109342E-2
7.852963460E-1,-1.491370238E-2,-4.261057824E-2,-2.929477207E-2
7.870159220E-1,-1.864212751E-2,-4.367584363E-2,-2.290318534E-2
7.894608070E-1,-1.544633508E-2,-3.834952042E-2,-2.077265643E-2
7.911613460E-1,-5.858954508E-3,-2.822950855E-2,-2.130528912E-2
7.936601530E-1,2.130528912E-3,-2.237055451E-2,-2.077265643E-2
7.952636150E-1,1.597896684E-3,-1.597896591E-2,-1.864212751E-2
7.974044610E-1,2.130528912E-3,-4.261057824E-3,-1.810949668E-2
7.991392690E-1,2.130528912E-3,-5.326322280E-3,-2.077265643E-2
8.019377330E-1,5.858954508E-3,-1.331580617E-2,-2.077265643E-2
8.032426150E-1,4.793690052E-3,-2.343581803E-2,-1.970739290E-2
8.056453460E-1,7.456851192E-3,-2.503371425E-2,-1.970739290E-2
8.072918460E-1,1.118527725E-2,-2.609897964E-2,-1.491370238E-2
8.097195760E-1,1.012001187E-2,-2.130528912E-2,-7.989482954E-3
8.115429220E-1,1.331580617E-2,-1.331580617E-2,-2.663161140E-3
8.137239990E-1,1.810949668E-2,-5.858954508E-3,5.326322280E-4
8.153559220E-1,2.024002373E-2,-3.195793368E-3,3.195793368E-3
8.178434990E-1,1.651159860E-2,5.326322280E-4,0.000000000E0
8.194878070E-1,1.065264456E-2,-5.326322280E-4,-2.663161140E-3
8.221747690E-1,4.261057824E-3,-3.195793368E-3,-6.391586736E-3
8.236493070E-1,5.326322280E-4,-5.326322280E-3,-9.054748341E-3
8.264465400E-1,-8.522115648E-3,-2.130528912E-3,-6.924218964E-3
8.276323840E-1,-1.331580617E-2,2.663161140E-3,-2.130528912E-3
8.305481170E-1,-1.384843793E-2,5.858954508E-3,5.326322280E-3
8.319353070E-1,-1.757686399E-2,1.171790902E-2,7.456851192E-3
8.345997330E-1,-2.130528912E-2,1.012001187E-2,1.065264456E-2
8.357641920E-1,-2.396845073E-2,7.456851192E-3,1.118527725E-2
8.386674630E-1,-2.396845073E-2,3.195793368E-3,1.118527725E-2
8.398651150E-1,-2.183792181E-2,-3.728425596E-3,7.456851192E-3
8.427690400E-1,-2.290318534E-2,-7.989482954E-3,5.858954508E-3
8.439586530E-1,-1.278317347E-2,-6.391586736E-3,2.130528912E-3
8.468705400E-1,-7.989482954E-3,-1.597896684E-3,-5.326322280E-4
8.481122690E-1,0.000000000E0,4.261057824E-3,0.000000000E0
8.509722710E-1,7.989482954E-3,1.544633508E-2,-1.597896684E-3
8.524875380E-1,1.810949668E-2,2.130528912E-2,1.065264456E-3
8.550071170E-1,2.183792181E-2,1.970739290E-2,1.065264456E-3
8.561817690E-1,2.130528912E-2,1.810949668E-2,2.663161140E-3
8.588261920E-1,1.970739290E-2,1.065264456E-2,4.261057824E-3
8.602968450E-1,1.438106969E-2,-1.597896684E-3,1.065264456E-3
8.631417300E-1,9.587380104E-3,-6.924218964E-3,1.065264456E-3
8.644315380E-1,6.924218964E-3,-1.118527725E-2,2.130528912E-3
8.668014610E-1,4.793690052E-3,-5.326322280E-3,4.261057824E-3
8.685092300E-1,6.924218964E-3,3.195793368E-3,6.924218964E-3
8.709302690E-1,4.793690052E-3,9.054748341E-3,8.522115648E-3
8.727636150E-1,5.326322280E-3,1.384843793E-2,8.522115648E-3
8.749119990E-1,6.391586736E-3,1.651159860E-2,5.858954508E-3
8.765892690E-1,1.597896684E-3,1.704423130E-2,5.326322280E-3
8.789634610E-1,-5.326322280E-3,1.651159860E-2,1.597896684E-3
8.807109610E-1,-9.054748341E-3,4.793690052E-3,3.728425596E-3
8.831527300E-1,-1.331580617E-2,-2.130528912E-3,1.065264456E-3
8.847999220E-1,-1.384843793E-2,-1.331580617E-2,4.793690052E-3
8.871609220E-1,5.326322280E-4,-2.822950855E-2,9.587380104E-3
8.888873450E-1,1.597896684E-3,-8.522115648E-3,1.012001187E-2
8.913134610E-1,-1.544633508E-2,9.054748341E-3,1.491370238E-2
8.932099220E-1,-2.982740477E-2,2.024002373E-2,1.065264456E-2
8.953015760E-1,-2.609897964E-2,1.278317347E-2,-2.663161140E-3
8.970005760E-1,-4.261057824E-3,-4.261057824E-3,-2.609897964E-2
8.994917690E-1,0.000000000E0,-1.118527725E-2,-3.621899337E-2
9.012460380E-1,-1.491370238E-2,-1.012001187E-2,-2.609897964E-2
9.039713840E-1,-2.716424316E-2,2.237055451E-2,-1.864212751E-2
9.053898070E-1,-1.970739290E-2,2.503371425E-2,-1.171790902E-2
9.081121170E-1,4.793690052E-3,1.225054078E-2,-1.012001187E-2
9.093061920E-1,1.118527725E-2,4.793690052E-3,-7.989482954E-3
9.122139250E-1,7.456851192E-3,5.326322280E-4,-2.663161140E-3
9.136109990E-1,4.793690052E-3,2.663161140E-3,1.597896684E-3
9.162576550E-1,1.065264456E-3,1.065264456E-2,1.597896684E-3
9.174274990E-1,5.326322280E-4,8.522115648E-3,2.663161140E-3
9.203247710E-1,-2.130528912E-3,-3.195793368E-3,6.391586736E-3
9.215261530E-1,5.326322280E-4,-7.456851192E-3,5.858954508E-3
9.244271940E-1,2.663161140E-3,2.130528912E-3,5.326322280E-3
9.256289220E-1,1.597896684E-3,1.278317347E-2,1.065264456E-2
9.285295780E-1,1.597896684E-3,1.171790902E-2,1.917476021E-2
9.297481920E-1,9.587380104E-3,9.587380104E-3,1.970739290E-2
9.326317320E-1,1.438106969E-2,1.118527725E-2,1.438106969E-2
9.340043070E-1,1.491370238E-2,7.456851192E-3,1.118527725E-2
9.366685780E-1,8.522115648E-3,6.391586736E-3,1.171790902E-2
9.378704220E-1,6.391586736E-3,1.065264456E-2,6.924218964E-3
9.406083840E-1,1.597896684E-3,1.012001187E-2,0.000000000E0
9.419576530E-1,-2.130528912E-3,2.130528912E-2,-4.793690052E-3
9.448032300E-1,-4.261057824E-3,1.438106969E-2,-2.130528912E-3
9.460378450E-1,3.195793368E-3,1.597896591E-2,-2.663161140E-3
9.485063070E-1,5.858954508E-3,1.651159860E-2,1.065264456E-3
9.501810380E-1,1.597896684E-3,1.864212751E-2,9.054748341E-3
9.525708840E-1,-3.195793368E-3,2.396845073E-2,1.438106969E-2
9.544249610E-1,-4.793690052E-3,2.024002373E-2,1.491370238E-2
9.565809610E-1,-4.261057824E-3,1.544633508E-2,1.012001187E-2
9.582582680E-1,-2.130528912E-3,1.012001187E-2,5.326322280E-3
9.606307680E-1,-7.456851192E-3,9.054748341E-3,5.326322280E-3
9.623569610E-1,-7.989482954E-3,1.757686399E-2,6.924218964E-3
9.649343070E-1,-3.728425596E-3,2.024002373E-2,7.989482954E-3
9.666866920E-1,0.000000000E0,2.450108156E-2,1.065264456E-2
9.689166920E-1,3.728425596E-3,2.343581803E-2,1.597896591E-2
9.705915760E-1,3.195793368E-3,2.237055451E-2,2.343581803E-2
9.730101150E-1,-1.065264456E-3,2.237055451E-2,3.089267015E-2
9.748285760E-1,-7.456851192E-3,1.864212751E-2,3.195793182E-2
9.769790380E-1,-1.331580617E-2,1.597896591E-2,3.142530099E-2
9.787032680E-1,-2.183792181E-2,9.587380104E-3,2.929477207E-2
9.812543070E-1,-2.716424316E-2,1.278317347E-2,2.716424316E-2
9.828309220E-1,-3.249056637E-2,1.704423130E-2,2.609897964E-2
9.856251150E-1,-3.408846259E-2,2.503371425E-2,2.769687586E-2
9.869130380E-1,-3.195793182E-2,3.089267015E-2,3.089267015E-2
9.897858860E-1,-2.343581803E-2,3.302319720E-2,3.142530099E-2
9.909845760E-1,-1.384843793E-2,3.888215125E-2,3.249056637E-2
9.938888470E-1,-7.456851192E-3,4.101268202E-2,3.302319720E-2
9.952704220E-1,-2.130528912E-3,4.154531285E-2,3.355583176E-2
9.979444630E-1,-2.663161140E-3,4.048004746E-2,3.302319720E-2
9.991115760E-1,3.195793368E-3,3.781688958E-2,3.089267015E-2
1.002012540E0,1.012001187E-2,3.568635881E-2,3.089267015E-2
1.003225576E0,6.391586736E-3,3.675162420E-2,3.142530099E-2
1.006115270E0,0.000000000E0,4.527373984E-2,3.621899337E-2
1.007318768E0,-2.130528912E-3,5.113269389E-2,3.781688958E-2
1.010218347E0,-3.195793368E-3,5.326322466E-2,3.781688958E-2
1.011418076E0,-5.326322280E-3,5.113269389E-2,3.781688958E-2
1.014321270E0,-7.989482954E-3,4.580637068E-2,3.728425503E-2
1.015979807E0,-6.391586736E-3,4.367584363E-2,3.994741663E-2
1.018364117E0,-1.597896591E-2,4.900216311E-2,3.834952042E-2
1.019666499E0,-2.024002373E-2,5.273059011E-2,4.048004746E-2
1.022182038E0,-2.237055451E-2,5.592638254E-2,4.207794741E-2
1.023642499E0,-2.396845073E-2,5.592638254E-2,4.420847446E-2
1.026535886E0,-2.130528912E-2,5.592638254E-2,4.154531285E-2
1.027723268E0,-2.024002373E-2,5.326322466E-2,4.101268202E-2
1.030142961E0,-1.970739290E-2,5.912217870E-2,4.314320907E-2
1.031839922E0,-2.183792181E-2,6.444849819E-2,4.793690145E-2
1.034260115E0,-1.917476021E-2,7.084008306E-2,5.379585549E-2
1.036144768E0,-1.544633508E-2,7.137271762E-2,5.805691332E-2
1.038275922E0,-8.522115648E-3,6.498113275E-2,5.965480953E-2
1.040040422E0,-3.728425596E-3,6.285060197E-2,5.912217870E-2
1.042334538E0,1.597896684E-3,6.924218684E-2,6.018744037E-2
1.044056922E0,2.130528912E-3,7.456851006E-2,6.125270575E-2
1.046960040E0,1.597896684E-3,7.669904083E-2,6.498113275E-2
1.048201691E0,6.924218964E-3,7.829693705E-2,6.817692518E-2
1.050571384E0,9.587380104E-3,7.723167539E-2,7.137271762E-2
1.052277999E0,9.054748341E-3,7.616640627E-2,7.190535218E-2
1.054667538E0,6.924218964E-3,7.616640627E-2,7.350324839E-2
1.056516807E0,-3.195793368E-3,7.190535218E-2,7.776430249E-2
1.058665268E0,-3.195793368E-3,6.338323653E-2,7.723167539E-2
1.060370807E0,-1.278317347E-2,6.977482140E-2,7.669904083E-2
1.062859499E0,-2.822950855E-2,7.456851006E-2,8.042746782E-2
1.064465268E0,-4.367584363E-2,6.764429063E-2,8.042746782E-2
1.067188230E0,-4.740426689E-2,7.723167539E-2,7.137271762E-2
1.068604922E0,-4.687163606E-2,6.125270575E-2,6.924218684E-2
1.071471884E0,-5.060006306E-2,6.711166352E-2,6.924218684E-2
1.072658768E0,-5.539375171E-2,6.657902896E-2,7.510114461E-2
1.075576501E0,-5.645901710E-2,6.338323653E-2,8.415589482E-2
1.076937884E0,-5.326322466E-2,7.243798673E-2,8.575379103E-2
1.079625961E0,-6.285060197E-2,9.267801046E-2,8.415589482E-2
1.080784884E0,-7.084008306E-2,8.948221803E-2,8.468852192E-2
1.083696347E0,-6.018744037E-2,6.444849819E-2,8.255799860E-2
1.084899191E0,-3.994741663E-2,5.805691332E-2,6.498113275E-2
1.087799155E0,-3.408846259E-2,7.297061384E-2,6.338323653E-2
1.088999153E0,-3.568635881E-2,5.326322466E-2,8.841694891E-2
1.091901847E0,-2.343581803E-2,6.178534031E-2,9.960222989E-2
1.093093845E0,-6.391586736E-3,9.427590668E-2,9.214537591E-2
1.096004116E0,2.130528912E-3,7.882957160E-2,9.960222989E-2
1.097377884E0,1.065264456E-3,5.326322466E-2,1.065264493E-1
1.100040462E0,2.024002373E-2,1.331580617E-2,9.747169912E-2
1.101235615E0,5.273059011E-2,-3.515372798E-2,7.243798673E-2
1.103866807E0,5.113269389E-2,6.657902896E-2,1.278317347E-2
1.105301845E0,6.125270575E-2,1.065264456E-2,3.036003746E-2
1.108159615E0,9.693906456E-2,-1.491370238E-2,3.568635881E-2
1.109404268E0,1.054611802E-1,1.368864775E-1,3.195793368E-3
1.111779422E0,5.060006306E-2,1.246359423E-1,5.592638254E-2
1.113515038E0,-3.941478580E-2,1.091896072E-1,1.043959185E-1
1.115918961E0,-9.321063757E-2,6.604639441E-2,9.640643001E-2
1.117812922E0,-1.012001261E-1,-5.965480953E-2,5.060006306E-2
1.119930653E0,-1.091896072E-1,-1.672465205E-1,3.728425596E-3
1.121617153E0,-1.219727769E-1,-2.151834220E-1,-2.237055451E-2
1.123983153E0,-1.358212233E-1,-5.805691332E-2,-3.888215125E-2
1.125718038E0,-1.230380461E-1,3.462109342E-2,-9.587380104E-3
1.128189807E0,-7.936219871E-2,6.125270575E-2,2.024002373E-2
1.129820730E0,-2.716424316E-2,9.534116834E-2,8.522115648E-3
1.132222038E0,-1.491370238E-2,7.936219871E-2,-4.261057824E-3
1.133947191E0,-5.006742850E-2,2.769687586E-2,-7.456851192E-3
1.136408153E0,-8.681905270E-2,-2.769687586E-2,-1.704423130E-2
1.138287038E0,-9.693906456E-2,-9.853696078E-2,-2.929477207E-2
1.140356191E0,-7.882957160E-2,-1.571265012E-1,-2.450108156E-2
1.142045422E0,-4.367584363E-2,-1.933455020E-1,4.261057824E-3
1.144517191E0,2.663161140E-3,-1.470064968E-1,3.302319720E-2
1.146176076E0,5.166532472E-2,-4.474110901E-2,5.752427876E-2
1.149039191E0,8.042746782E-2,4.740426689E-2,7.829693705E-2
1.150247115E0,8.841694891E-2,1.027980223E-1,7.989483327E-2
1.153156808E0,9.054747969E-2,1.001348570E-1,5.060006306E-2
1.154439730E0,9.108011425E-2,2.024002373E-2,9.054748341E-3
1.157260270E0,8.735168725E-2,-8.149272949E-2,-2.237055451E-2
1.158619038E0,5.645901710E-2,-1.459412277E-1,-3.142530099E-2
1.161303384E0,1.012001187E-2,-1.336906850E-1,-1.278317347E-2
1.162518614E0,-3.568635881E-2,-7.243798673E-2,2.450108156E-2
1.165375501E0,-5.805691332E-2,-1.917476021E-2,6.338323653E-2
1.166569538E0,-5.539375171E-2,1.012001187E-2,7.936219871E-2
1.169478231E0,-4.420847446E-2,9.587380104E-3,7.403588295E-2
1.170675730E0,-5.432848632E-2,-1.012001187E-2,5.645901710E-2
1.173580422E0,-8.788431436E-2,-2.183792181E-2,3.195793182E-2
1.174764230E0,-1.246359423E-1,-3.195793182E-2,7.456851192E-3
1.177683962E0,-1.400822699E-1,-6.285060197E-2,-1.331580617E-2
1.179076999E0,-1.182443574E-1,-9.747169912E-2,-2.396845073E-2
1.181721385E0,-7.510114461E-2,-1.134506613E-1,-2.290318534E-2
1.182881038E0,-2.663161233E-2,-8.309062570E-2,-1.118527725E-2
1.185541538E0,2.556634694E-2,6.391586736E-3,2.130528912E-2
1.186982653E0,4.580637068E-2,5.486112088E-2,3.888215125E-2
1.189860653E0,5.379585549E-2,6.125270575E-2,3.621899337E-2
1.191075153E0,5.539375171E-2,1.704423130E-2,2.077265643E-2
1.193456653E0,5.060006306E-2,-6.018744037E-2,2.130528912E-3
1.195214845E0,3.621899337E-2,-1.257012039E-1,-1.331580617E-2
1.197596730E0,1.704423130E-2,-1.454086006E-1,-2.130528912E-2
1.199463345E0,1.012001187E-2,-1.262338310E-1,-2.130528912E-2
1.201617691E0,1.597896591E-2,-7.936219871E-2,-1.171790902E-2
1.203375191E0,3.781688958E-2,-3.089267015E-2,-5.326322280E-4
1.205747307E0,6.231797114E-2,1.012001187E-2,2.663161140E-3
1.207418422E0,7.137271762E-2,3.036003746E-2,4.261057824E-3
1.209993614E0,5.273059011E-2,3.621899337E-2,5.326322280E-4
1.211517499E0,1.225054078E-2,2.130528912E-2,-1.065264456E-2
1.213874345E0,-3.302319720E-2,-1.970739290E-2,-2.130528912E-2
1.215614845E0,-6.817692518E-2,-7.350324839E-2,-2.769687586E-2
1.218039884E0,-8.415589482E-2,-1.182443574E-1,-2.556634694E-2
1.219903191E0,-8.628641814E-2,-1.310275346E-1,-9.054748341E-3
1.222039345E0,-8.415589482E-2,-1.075917110E-1,1.597896591E-2
1.223789114E0,-7.723167539E-2,-5.486112088E-2,4.314320907E-2
1.226189422E0,-6.551376730E-2,3.195793368E-3,5.912217870E-2
1.227837576E0,-5.113269389E-2,3.568635881E-2,6.285060197E-2
1.230524114E0,-3.994741663E-2,2.609897964E-2,4.953479767E-2
1.231926461E0,-2.503371425E-2,-1.225054078E-2,2.822950855E-2
1.234838000E0,-1.597896591E-2,-5.752427876E-2,7.456851192E-3
1.236030653E0,-4.793690052E-3,-8.096009493E-2,-2.130528912E-3
1.238941808E0,1.118527725E-2,-6.444849819E-2,1.118527725E-2
1.240325538E0,3.142530099E-2,-3.089267015E-2,3.728425503E-2
1.243001770E0,4.633900523E-2,5.858954508E-3,6.231797114E-2
1.244166576E0,5.752427876E-2,2.822950855E-2,8.468852192E-2
1.247070731E0,5.486112088E-2,3.089267015E-2,9.267801046E-2
1.248258153E0,3.195793182E-2,1.384843793E-2,8.468852192E-2
1.251174808E0,-1.597896684E-3,-1.704423130E-2,6.125270575E-2
1.252367191E0,-3.728425503E-2,-4.633900523E-2,3.728425503E-2
1.255277962E0,-6.657902896E-2,-6.764429063E-2,1.864212751E-2
1.256471076E0,-7.829693705E-2,-7.723167539E-2,1.597896591E-2
1.259381269E0,-7.403588295E-2,-6.178534031E-2,2.290318534E-2
1.260754884E0,-6.178534031E-2,-2.663161233E-2,3.941478580E-2
1.263423693E0,-5.006742850E-2,1.704423130E-2,5.432848632E-2
1.264580114E0,-4.953479767E-2,5.113269389E-2,6.817692518E-2
1.267276884E0,-5.752427876E-2,5.752427876E-2,6.657902896E-2
1.268790999E0,-6.924218684E-2,3.089267015E-2,5.006742850E-2
1.271594846E0,-8.096009493E-2,-1.970739290E-2,2.929477207E-2
1.272830961E0,-9.321063757E-2,-6.444849819E-2,1.012001187E-2
1.275203153E0,-1.012001261E-1,-8.575379103E-2,2.130528912E-3
1.276934807E0,-9.108011425E-2,-7.190535218E-2,5.858954508E-3
1.279306076E0,-6.498113275E-2,-4.101268202E-2,2.130528912E-2
1.281198653E0,-2.609897964E-2,1.065264456E-3,4.474110901E-2
1.283372422E0,1.384843793E-2,3.249056637E-2,6.338323653E-2
1.285058499E0,5.113269389E-2,4.687163606E-2,7.297061384E-2
1.287444191E0,7.243798673E-2,4.367584363E-2,6.657902896E-2
1.289259884E0,7.137271762E-2,2.556634694E-2,5.060006306E-2
1.292019308E0,5.486112088E-2,1.065264456E-3,3.408846259E-2
1.293382499E0,3.675162420E-2,-2.077265643E-2,1.704423130E-2
1.295617768E0,2.396845073E-2,-3.834952042E-2,1.118527725E-2
1.297491076E0,2.609897964E-2,-4.261057824E-2,1.597896591E-2
1.299861037E0,2.663161233E-2,-1.278317347E-2,4.261057824E-2
1.301636499E0,1.597896591E-2,2.716424316E-2,6.551376730E-2
1.303780384E0,-3.195793368E-3,5.539375171E-2,8.042746782E-2
1.305478614E0,-2.343581803E-2,5.699164793E-2,8.149272949E-2
1.308052768E0,-4.314320907E-2,2.503371425E-2,6.870955974E-2
1.309590422E0,-5.965480953E-2,-2.450108156E-2,5.219795927E-2
1.312260230E0,-7.510114461E-2,-5.805691332E-2,3.355583176E-2
1.313659614E0,-8.841694891E-2,-6.231797114E-2,2.503371425E-2
1.316537308E0,-9.214537591E-2,-3.994741663E-2,3.036003746E-2
1.317775537E0,-8.362326026E-2,-2.663161140E-3,4.367584363E-2
1.320640462E0,-6.018744037E-2,3.089267015E-2,5.912217870E-2
1.322111537E0,-3.941478580E-2,4.846953228E-2,7.350324839E-2
1.324693038E0,-2.663161233E-2,5.113269389E-2,7.669904083E-2
1.325908076E0,-2.450108156E-2,3.142530099E-2,7.030745596E-2
1.328761000E0,-3.621899337E-2,3.195793368E-3,5.858954415E-2
1.330021845E0,-4.900216311E-2,-2.769687586E-2,4.207794741E-2
1.332863038E0,-5.273059011E-2,-5.805691332E-2,3.036003746E-2
1.334149730E0,-4.101268202E-2,-7.510114461E-2,2.503371425E-2
1.336965577E0,-1.438106969E-2,-6.444849819E-2,2.556634694E-2
1.338225037E0,1.118527725E-2,-3.408846259E-2,3.728425503E-2
1.341068692E0,3.195793182E-2,1.651159860E-2,4.846953228E-2
1.342541114E0,3.994741663E-2,5.219795927E-2,5.379585549E-2
1.345105000E0,4.154531285E-2,5.912217870E-2,4.793690145E-2
1.346320999E0,3.675162420E-2,3.036003746E-2,3.036003746E-2
1.348956037E0,2.556634694E-2,-1.864212751E-2,7.456851192E-3
1.350476076E0,1.597896684E-3,-5.805691332E-2,-7.989482954E-3
1.353275731E0,-1.917476021E-2,-7.829693705E-2,-1.065264456E-2
1.354539768E0,-3.888215125E-2,-7.030745596E-2,-3.195793368E-3
1.356923114E0,-4.207794741E-2,-4.314320907E-2,1.118527725E-2
1.358635076E0,-2.609897964E-2,-6.391586736E-3,3.675162420E-2
1.361037345E0,-1.544633508E-2,9.587380104E-3,4.527373984E-2
1.362912384E0,-1.384843793E-2,1.651159860E-2,4.846953228E-2
1.365103537E0,-2.237055451E-2,1.651159860E-2,4.367584363E-2
1.366764653E0,-3.941478580E-2,-1.065264456E-3,3.036003746E-2
1.369225845E0,-5.166532472E-2,-2.663161233E-2,1.438106969E-2
1.370946307E0,-5.432848632E-2,-4.314320907E-2,1.597896684E-3
1.373440922E0,-4.474110901E-2,-5.432848632E-2,-5.326322280E-4
1.374967845E0,-2.769687586E-2,-4.048004746E-2,8.522115648E-3
1.377504614E0,-1.171790902E-2,-7.989482954E-3,2.663161233E-2
1.379291537E0,2.130528912E-3,3.036003746E-2,4.687163606E-2
1.381473807E0,1.225054078E-2,4.953479767E-2,5.645901710E-2
1.383359614E0,1.917476021E-2,3.994741663E-2,6.018744037E-2
1.385507884E0,1.970739290E-2,7.456851192E-3,4.846953228E-2
1.387343922E0,1.118527725E-2,-2.769687586E-2,3.249056637E-2
1.389660422E0,-1.065264456E-3,-4.900216311E-2,1.704423130E-2
1.391312884E0,-1.065264456E-2,-5.219795927E-2,9.587380104E-3
1.394119692E0,-1.065264456E-2,-3.994741663E-2,5.326322280E-3
1.395394153E0,5.326322280E-4,-1.864212751E-2,1.438106969E-2
1.398222538E0,1.331580617E-2,7.456851192E-3,2.130528912E-2
1.399502422E0,2.556634694E-2,2.663161233E-2,3.728425503E-2
1.402326154E0,2.130528912E-2,3.195793182E-2,4.527373984E-2
1.403906576E0,6.924218964E-3,2.396845073E-2,4.474110901E-2
1.406374192E0,-1.225054078E-2,-3.195793368E-3,3.462109342E-2
1.407658922E0,-3.355583176E-2,-3.089267015E-2,1.810949668E-2
1.410443038E0,-5.060006306E-2,-5.166532472E-2,1.597896684E-3
1.411730422E0,-5.858954415E-2,-5.965480953E-2,-5.858954508E-3
1.414546577E0,-6.178534031E-2,-3.941478580E-2,2.663161140E-3
1.415992345E0,-5.486112088E-2,-1.171790902E-2,1.970739290E-2
1.418649769E0,-3.941478580E-2,2.876213938E-2,5.006742850E-2
1.419959499E0,-2.716424316E-2,3.302319720E-2,5.965480953E-2
1.422753192E0,-1.864212751E-2,1.544633508E-2,5.539375171E-2
1.424224807E0,-1.491370238E-2,-9.054748341E-3,3.728425503E-2
1.426790153E0,-2.130528912E-2,-3.142530099E-2,1.970739290E-2
1.428028653E0,-3.249056637E-2,-4.048004746E-2,7.456851192E-3
1.430723576E0,-3.675162420E-2,-3.675162420E-2,6.391586736E-3
1.432127114E0,-2.822950855E-2,-2.929477207E-2,1.704423130E-2
1.434946191E0,-1.438106969E-2,-1.384843793E-2,3.195793182E-2
1.436318653E0,2.130528912E-3,-4.793690052E-3,4.740426689E-2
1.438604307E0,1.704423130E-2,-1.597896684E-3,5.273059011E-2
1.440301653E0,3.089267015E-2,-1.597896684E-3,4.580637068E-2
1.442757037E0,3.834952042E-2,-1.065264456E-2,3.408846259E-2
1.444624076E0,3.195793182E-2,-1.171790902E-2,1.917476021E-2
1.446739884E0,1.757686399E-2,-1.491370238E-2,1.118527725E-2
1.448420691E0,2.663161140E-3,-1.278317347E-2,6.391586736E-3
1.450789653E0,-1.331580617E-2,-4.261057824E-3,5.858954508E-3
1.452522307E0,-2.183792181E-2,2.130528912E-3,1.012001187E-2
1.455122922E0,-3.089267015E-2,6.924218964E-3,1.491370238E-2
1.456622922E0,-4.154531285E-2,1.065264456E-2,2.183792181E-2
1.459020499E0,-4.420847446E-2,-5.326322280E-4,2.982740477E-2
1.460758499E0,-4.740426689E-2,-1.651159860E-2,3.195793182E-2
1.463153345E0,-4.793690145E-2,-3.355583176E-2,3.515372798E-2
1.465000460E0,-5.219795927E-2,-4.154531285E-2,3.568635881E-2
1.467162076E0,-5.219795927E-2,-3.195793182E-2,3.142530099E-2
1.468903191E0,-5.060006306E-2,-2.290318534E-2,2.556634694E-2
1.471476691E0,-4.367584363E-2,-6.924218964E-3,1.651159860E-2
1.473058691E0,-2.769687586E-2,2.130528912E-3,8.522115648E-3
1.475799923E0,-1.065264456E-2,7.989482954E-3,4.793690052E-3
1.477079230E0,3.195793368E-3,1.704423130E-2,1.012001187E-2
1.479903230E0,7.456851192E-3,9.587380104E-3,1.864212751E-2
1.481252691E0,6.924218964E-3,1.065264456E-3,2.822950855E-2
1.484006538E0,1.225054078E-2,-1.438106969E-2,3.142530099E-2
1.485559730E0,1.225054078E-2,-3.142530099E-2,2.876213938E-2
1.488062230E0,1.384843793E-2,-3.994741663E-2,2.556634694E-2
1.489618191E0,1.651159860E-2,-3.728425503E-2,1.970739290E-2
1.492130884E0,1.757686399E-2,-2.130528912E-2,1.917476021E-2
1.493384191E0,1.544633508E-2,-2.130528912E-3,2.290318534E-2
1.496234307E0,1.384843793E-2,1.331580617E-2,2.929477207E-2
1.497663691E0,1.065264456E-2,1.864212751E-2,2.982740477E-2
1.500337769E0,4.793690052E-3,6.924218964E-3,2.982740477E-2
1.501628076E0,-5.326322280E-4,-7.989482954E-3,2.822950855E-2
1.504441307E0,-8.522115648E-3,-2.556634694E-2,2.396845073E-2
1.505937153E0,-1.384843793E-2,-3.568635881E-2,2.183792181E-2
1.508484307E0,-1.544633508E-2,-3.888215125E-2,1.864212751E-2
1.509749845E0,-1.331580617E-2,-3.515372798E-2,2.396845073E-2
1.512358768E0,-1.171790902E-2,-2.343581803E-2,3.142530099E-2
1.513822422E0,-7.989482954E-3,-3.728425596E-3,3.728425503E-2
1.516656845E0,-1.278317347E-2,3.728425596E-3,3.941478580E-2
1.517926037E0,-1.757686399E-2,1.012001187E-2,3.302319720E-2
1.520320076E0,-2.876213938E-2,2.663161140E-3,2.130528912E-2
1.522016845E0,-4.261057824E-2,-1.012001187E-2,1.331580617E-2
1.524453230E0,-4.953479767E-2,-2.556634694E-2,4.793690052E-3
1.526310153E0,-5.486112088E-2,-3.675162420E-2,2.663161140E-3
1.528485153E0,-5.645901710E-2,-3.195793182E-2,8.522115648E-3
1.530141576E0,-5.219795927E-2,-1.810949668E-2,1.597896591E-2
1.532526614E0,-5.006742850E-2,-6.391586736E-3,2.822950855E-2
1.534312499E0,-4.687163606E-2,5.326322280E-3,3.621899337E-2
1.537084268E0,-4.101268202E-2,-2.663161140E-3,4.101268202E-2
1.538485345E0,-3.675162420E-2,-1.544633508E-2,3.568635881E-2
1.540817460E0,-3.462109342E-2,-3.195793182E-2,2.982740477E-2
1.542559614E0,-3.568635881E-2,-4.367584363E-2,2.183792181E-2
1.544906383E0,-2.876213938E-2,-3.941478580E-2,1.704423130E-2
1.547326884E0,-1.225054078E-2,-3.249056637E-2,1.704423130E-2
1.548883922E0,4.793690052E-3,-1.917476021E-2,2.290318534E-2
1.550824383E0,2.556634694E-2,-4.261057824E-3,3.195793182E-2
1.553302960E0,4.261057824E-2,9.054748341E-3,4.314320907E-2
1.554674037E0,5.166532472E-2,1.118527725E-2,4.846953228E-2
1.557358730E0,4.900216311E-2,5.326322280E-3,4.900216311E-2
1.558767730E0,3.728425503E-2,-5.326322280E-3,4.527373984E-2
1.561607538E0,1.917476021E-2,-1.757686399E-2,3.728425503E-2
1.562979922E0,2.130528912E-3,-3.195793182E-2,3.195793182E-2
1.565711691E0,-1.065264456E-2,-3.462109342E-2,2.343581803E-2
1.567194999E0,-2.290318534E-2,-3.249056637E-2,2.290318534E-2
1.569764807E0,-3.089267015E-2,-2.130528912E-2,2.769687586E-2
1.571015460E0,-3.515372798E-2,5.326322280E-4,3.195793182E-2
1.573834076E0,-3.408846259E-2,6.391586736E-3,4.207794741E-2
1.575147730E0,-3.515372798E-2,9.587380104E-3,4.261057824E-2
1.577937153E0,-3.888215125E-2,3.728425596E-3,4.420847446E-2
1.579326960E0,-4.367584363E-2,-1.491370238E-2,3.834952042E-2
1.582040153E0,-5.379585549E-2,-2.343581803E-2,3.302319720E-2
1.583344460E0,-6.072007492E-2,-3.195793182E-2,2.822950855E-2
1.586143114E0,-6.338323653E-2,-3.195793182E-2,2.290318534E-2
1.587698576E0,-5.592638254E-2,-2.343581803E-2,1.970739290E-2
1.590179961E0,-4.420847446E-2,-1.757686399E-2,2.450108156E-2
1.591441306E0,-3.621899337E-2,-1.065264456E-3,3.142530099E-2
1.594103691E0,-2.343581803E-2,6.391586736E-3,4.154531285E-2
1.595523037E0,-1.118527725E-2,4.261057824E-3,4.687163606E-2
1.598331191E0,-6.391586736E-3,-9.587380104E-3,4.900216311E-2
1.599683460E0,-6.391586736E-3,-2.343581803E-2,4.740426689E-2
1.602065537E0,-6.391586736E-3,-3.515372798E-2,4.314320907E-2
1.603906730E0,-6.924218964E-3,-3.994741663E-2,3.888215125E-2
1.606142306E0,-7.989482954E-3,-3.195793182E-2,3.781688958E-2
1.607989114E0,-7.989482954E-3,-1.810949668E-2,4.101268202E-2
1.610126306E0,-5.326322280E-3,-4.793690052E-3,4.580637068E-2
1.611920153E0,-4.261057824E-3,2.130528912E-3,5.006742850E-2
1.614213691E0,3.195793368E-3,-1.065264456E-3,5.113269389E-2
1.615976768E0,1.065264456E-3,-7.989482954E-3,5.060006306E-2
1.618432999E0,-1.065264456E-3,-1.970739290E-2,4.740426689E-2
1.620030422E0,-3.195793368E-3,-2.929477207E-2,4.474110901E-2
1.622791883E0,-1.118527725E-2,-2.982740477E-2,3.941478580E-2
1.624244037E0,-1.225054078E-2,-3.195793182E-2,3.941478580E-2
1.626607422E0,-1.225054078E-2,-2.822950855E-2,3.994741663E-2
1.628435306E0,-1.012001187E-2,-2.077265643E-2,4.048004746E-2
1.630629306E0,-9.054748341E-3,-1.331580617E-2,4.154531285E-2
1.632256037E0,-1.225054078E-2,-4.793690052E-3,3.994741663E-2
1.634822806E0,-1.278317347E-2,-2.663161140E-3,3.728425503E-2
1.636385076E0,-1.757686399E-2,-7.989482954E-3,3.355583176E-2
1.639191076E0,-2.290318534E-2,-1.597896591E-2,3.408846259E-2
1.641057653E0,-3.195793182E-2,-2.716424316E-2,3.675162420E-2
1.643294499E0,-3.728425503E-2,-3.249056637E-2,3.675162420E-2
1.644689691E0,-3.834952042E-2,-4.048004746E-2,3.994741663E-2
1.647397537E0,-3.728425503E-2,-3.728425503E-2,4.261057824E-2
1.648831383E0,-3.249056637E-2,-2.716424316E-2,3.834952042E-2
1.651444383E0,-2.503371425E-2,-2.130528912E-2,3.888215125E-2
1.652875153E0,-1.491370238E-2,-1.384843793E-2,3.781688958E-2
1.655512191E0,-7.989482954E-3,-3.728425596E-3,3.941478580E-2
1.656837268E0,-1.331580617E-2,-2.130528912E-3,4.314320907E-2
1.659614883E0,-1.704423130E-2,-7.456851192E-3,4.420847446E-2
1.660894960E0,-1.810949668E-2,-2.183792181E-2,4.154531285E-2
1.663717537E0,-2.183792181E-2,-2.822950855E-2,3.781688958E-2
1.665107268E0,-2.183792181E-2,-3.728425503E-2,3.195793182E-2
1.667820576E0,-2.237055451E-2,-3.568635881E-2,3.408846259E-2
1.669439922E0,-2.396845073E-2,-2.716424316E-2,3.994741663E-2
1.671857999E0,-2.556634694E-2,-1.917476021E-2,4.527373984E-2
1.673322845E0,-2.822950855E-2,-1.065264456E-2,4.846953228E-2
1.675836806E0,-3.302319720E-2,-1.065264456E-2,5.219795927E-2
1.677313999E0,-3.781688958E-2,-1.544633508E-2,4.740426689E-2
1.680028806E0,-4.101268202E-2,-2.609897964E-2,4.048004746E-2
1.681582576E0,-4.314320907E-2,-3.728425503E-2,3.408846259E-2
1.683764653E0,-4.261057824E-2,-3.994741663E-2,3.142530099E-2
1.685681576E0,-3.941478580E-2,-3.675162420E-2,3.462109342E-2
1.687921845E0,-3.728425503E-2,-2.609897964E-2,4.207794741E-2
1.689779345E0,-2.876213938E-2,-1.757686399E-2,5.219795927E-2
1.691814037E0,-2.450108156E-2,-1.384843793E-2,5.912217870E-2
1.693596345E0,-1.544633508E-2,-1.331580617E-2,5.965480953E-2
1.696129883E0,-1.012001187E-2,-1.704423130E-2,5.965480953E-2
1.697847576E0,-7.989482954E-3,-2.450108156E-2,5.273059011E-2
1.700211691E0,-4.261057824E-3,-2.982740477E-2,4.793690145E-2
1.701725076E0,-2.130528912E-3,-3.834952042E-2,4.527373984E-2
1.704076960E0,0.000000000E0,-3.675162420E-2,4.633900523E-2
1.706035729E0,5.858954508E-3,-2.609897964E-2,5.219795927E-2
1.708330768E0,7.456851192E-3,-1.704423130E-2,5.699164793E-2
1.710078076E0,4.261057824E-3,-6.391586736E-3,5.858954415E-2
1.712236153E0,0.000000000E0,-7.456851192E-3,5.752427876E-2
1.713928499E0,-2.663161140E-3,-7.989482954E-3,5.486112088E-2
1.716536268E0,-1.704423130E-2,-2.609897964E-2,5.113269389E-2
1.717973268E0,-2.876213938E-2,-3.302319720E-2,4.846953228E-2
1.720719883E0,-3.834952042E-2,-3.728425503E-2,4.900216311E-2
1.722142345E0,-4.953479767E-2,-3.888215125E-2,5.060006306E-2
1.724978614E0,-5.858954415E-2,-2.982740477E-2,5.113269389E-2
1.726261576E0,-6.018744037E-2,-1.970739290E-2,5.273059011E-2
1.729082345E0,-6.231797114E-2,-1.118527725E-2,4.900216311E-2
1.730546037E0,-6.125270575E-2,-6.924218964E-3,4.953479767E-2
1.733138883E0,-6.125270575E-2,-9.054748341E-3,4.740426689E-2
1.734364499E0,-6.391586363E-2,-1.384843793E-2,4.633900523E-2
1.737207345E0,-6.657902896E-2,-2.130528912E-2,4.687163606E-2
1.738522153E0,-6.338323653E-2,-2.396845073E-2,4.633900523E-2
1.741310960E0,-6.178534031E-2,-2.609897964E-2,4.633900523E-2
1.742540806E0,-5.592638254E-2,-2.769687586E-2,5.113269389E-2
1.745414191E0,-4.740426689E-2,-2.290318534E-2,5.166532472E-2
1.746666422E0,-3.941478580E-2,-1.544633508E-2,5.273059011E-2
1.749517383E0,-2.982740477E-2,-1.065264456E-2,5.645901710E-2
1.750900460E0,-2.077265643E-2,-6.924218964E-3,5.645901710E-2
1.753560729E0,-1.704423130E-2,-9.587380104E-3,5.539375171E-2
1.754837460E0,-1.491370238E-2,-1.171790902E-2,5.326322466E-2
1.757437383E0,-1.438106969E-2,-1.651159860E-2,5.326322466E-2
1.758949845E0,-9.587380104E-3,-2.237055451E-2,5.060006306E-2
1.761732344E0,-5.326322280E-3,-2.450108156E-2,5.113269389E-2
1.762989960E0,-3.728425596E-3,-2.237055451E-2,5.539375171E-2
1.765389614E0,-1.065264456E-3,-1.544633508E-2,5.486112088E-2
1.767091614E0,-2.130528912E-3,-7.456851192E-3,5.858954415E-2
1.769541268E0,-9.587380104E-3,0.000000000E0,5.858954415E-2
1.771474460E0,-1.597896591E-2,1.065264456E-3,5.912217870E-2
1.773564306E0,-2.929477207E-2,-4.793690052E-3,5.486112088E-2
1.775401845E0,-3.888215125E-2,-9.587380104E-3,4.953479767E-2
1.777569960E0,-4.314320907E-2,-2.077265643E-2,4.846953228E-2
1.779394422E0,-4.900216311E-2,-2.290318534E-2,4.793690145E-2
1.782155267E0,-5.006742850E-2,-2.024002373E-2,5.113269389E-2
1.783419460E0,-5.006742850E-2,-1.384843793E-2,5.432848632E-2
1.785816653E0,-4.900216311E-2,-1.065264456E-3,5.805691332E-2
1.787714229E0,-5.060006306E-2,1.065264456E-3,6.072007492E-2
1.790002422E0,-4.953479767E-2,3.728425596E-3,5.858954415E-2
1.791869229E0,-4.953479767E-2,-5.326322280E-4,5.645901710E-2
1.793915999E0,-4.846953228E-2,-9.587380104E-3,5.060006306E-2
1.795633653E0,-4.900216311E-2,-1.491370238E-2,4.367584363E-2
1.798069114E0,-4.420847446E-2,-2.024002373E-2,4.207794741E-2
1.799788537E0,-3.994741663E-2,-1.864212751E-2,4.314320907E-2
1.802432999E0,-3.249056637E-2,-1.704423130E-2,4.580637068E-2
1.803797345E0,-2.237055451E-2,-1.012001187E-2,5.219795927E-2
1.806676383E0,-1.491370238E-2,-3.728425596E-3,5.486112088E-2
1.807915960E0,-6.924218964E-3,-5.326322280E-4,5.379585549E-2
1.810779190E0,-2.663161140E-3,-5.326322280E-4,5.006742850E-2
1.812207922E0,-4.261057824E-3,-5.858954508E-3,4.420847446E-2
1.814830037E0,-6.391586736E-3,-9.587380104E-3,3.888215125E-2
1.816035922E0,-1.012001187E-2,-1.491370238E-2,3.195793182E-2
1.818898152E0,-1.384843793E-2,-2.290318534E-2,3.142530099E-2
1.820181268E0,-1.331580617E-2,-2.024002373E-2,3.195793182E-2
1.823001690E0,-1.278317347E-2,-1.704423130E-2,3.568635881E-2
1.824187191E0,-1.278317347E-2,-1.065264456E-2,4.154531285E-2
1.827104575E0,-1.278317347E-2,-9.587380104E-3,4.261057824E-2
1.828353537E0,-1.438106969E-2,-1.118527725E-2,4.048004746E-2
1.831207190E0,-1.810949668E-2,-1.597896591E-2,3.621899337E-2
1.832658537E0,-2.237055451E-2,-2.077265643E-2,3.462109342E-2
1.835242767E0,-2.822950855E-2,-2.237055451E-2,2.982740477E-2
1.836457691E0,-3.142530099E-2,-2.237055451E-2,2.663161233E-2
1.839107076E0,-2.716424316E-2,-2.077265643E-2,2.716424316E-2
1.840576537E0,-2.503371425E-2,-1.757686399E-2,2.929477207E-2
1.843413960E0,-2.024002373E-2,-1.118527725E-2,3.355583176E-2
1.844778152E0,-1.597896591E-2,-5.326322280E-3,3.621899337E-2
1.847092460E0,-1.438106969E-2,-3.728425596E-3,3.781688958E-2
1.848809691E0,-1.597896591E-2,-7.989482954E-3,3.515372798E-2
1.851178614E0,-1.970739290E-2,-1.065264456E-2,3.675162420E-2
1.853033345E0,-1.970739290E-2,-1.491370238E-2,3.302319720E-2
1.855213191E0,-2.343581803E-2,-2.024002373E-2,2.822950855E-2
1.856962729E0,-2.822950855E-2,-2.396845073E-2,2.822950855E-2
1.859242922E0,-2.450108156E-2,-2.130528912E-2,2.876213938E-2
1.860972268E0,-2.130528912E-2,-1.331580617E-2,3.036003746E-2
1.863525576E0,-2.077265643E-2,-6.924218964E-3,3.089267015E-2
1.865088345E0,-1.810949668E-2,-4.261057824E-3,3.089267015E-2
1.867521460E0,-1.544633508E-2,-2.130528912E-3,3.249056637E-2
1.869398768E0,-1.704423130E-2,-5.326322280E-3,3.355583176E-2
1.871833345E0,-2.077265643E-2,-1.065264456E-2,2.822950855E-2
1.873919806E0,-2.237055451E-2,-1.597896591E-2,2.396845073E-2
1.875685076E0,-2.450108156E-2,-1.651159860E-2,2.343581803E-2
1.877521883E0,-2.503371425E-2,-1.810949668E-2,2.024002373E-2
1.879805345E0,-2.343581803E-2,-1.491370238E-2,2.183792181E-2
1.881398922E0,-1.970739290E-2,-9.054748341E-3,2.556634694E-2
1.884245998E0,-1.917476021E-2,-2.663161140E-3,2.663161233E-2
1.885615229E0,-1.225054078E-2,1.065264456E-3,2.929477207E-2
1.888347959E0,-1.118527725E-2,2.663161140E-3,2.716424316E-2
1.889719999E0,-1.065264456E-2,-3.195793368E-3,2.290318534E-2
1.892449767E0,-1.651159860E-2,-6.391586736E-3,2.024002373E-2
1.893897691E0,-1.757686399E-2,-9.587380104E-3,1.597896591E-2
1.896493844E0,-1.491370238E-2,-9.054748341E-3,1.491370238E-2
1.897734306E0,-1.278317347E-2,-5.326322280E-3,1.597896591E-2
1.900561459E0,-1.384843793E-2,2.130528912E-3,1.757686399E-2
1.901906768E0,-1.225054078E-2,5.858954508E-3,2.183792181E-2
1.904663229E0,-1.012001187E-2,9.054748341E-3,2.503371425E-2
1.906086383E0,-1.225054078E-2,8.522115648E-3,2.556634694E-2
1.908765036E0,-1.225054078E-2,5.858954508E-3,2.343581803E-2
1.910139922E0,-1.065264456E-2,-1.065264456E-3,2.077265643E-2
1.912867036E0,-1.278317347E-2,-3.195793368E-3,1.810949668E-2
1.914383806E0,-1.278317347E-2,-2.663161140E-3,1.491370238E-2
1.916901613E0,-1.118527725E-2,2.663161140E-3,1.438106969E-2
1.918140883E0,-1.118527725E-2,5.858954508E-3,1.651159860E-2
1.920787729E0,-8.522115648E-3,1.065264456E-2,1.651159860E-2
1.922233768E0,-4.261057824E-3,1.491370238E-2,1.757686399E-2
1.925063883E0,-3.728425596E-3,1.970739290E-2,2.024002373E-2
1.926327152E0,-5.326322280E-3,1.704423130E-2,2.130528912E-2
1.928696037E0,-8.522115648E-3,1.278317347E-2,1.970739290E-2
1.930398691E0,-1.171790902E-2,6.391586736E-3,1.757686399E-2
1.932819383E0,-1.384843793E-2,4.261057824E-3,1.597896591E-2
1.934681614E0,-1.651159860E-2,5.326322280E-4,1.544633508E-2
1.936837191E0,-1.384843793E-2,4.261057824E-3,1.438106969E-2
1.938541691E0,-1.225054078E-2,7.456851192E-3,1.544633508E-2
1.940922960E0,-7.456851192E-3,1.704423130E-2,1.438106969E-2
1.942667614E0,-2.130528912E-3,1.970739290E-2,1.438106969E-2
1.945326345E0,-1.597896684E-3,1.917476021E-2,1.704423130E-2
1.946884652E0,-1.597896684E-3,1.970739290E-2,1.384843793E-2
1.949248614E0,-1.065264456E-3,1.118527725E-2,1.118527725E-2
1.950866537E0,1.597896684E-3,7.456851192E-3,3.728425596E-3
1.953379691E0,2.663161140E-3,4.793690052E-3,4.261057824E-3
1.955208114E0,6.924218964E-3,5.858954508E-3,4.793690052E-3
1.957735690E0,9.587380104E-3,8.522115648E-3,4.793690052E-3
1.959154768E0,1.118527725E-2,1.171790902E-2,6.924218964E-3
1.961732075E0,1.544633508E-2,1.704423130E-2,6.391586736E-3
1.963111922E0,1.491370238E-2,1.917476021E-2,7.456851192E-3
1.965792268E0,1.544633508E-2,1.491370238E-2,5.326322280E-3
1.967160114E0,1.491370238E-2,1.225054078E-2,5.326322280E-4
1.970007536E0,1.278317347E-2,4.793690052E-3,-3.728425596E-3
1.971404537E0,1.065264456E-2,1.597896684E-3,-5.326322280E-3
1.974109574E0,1.118527725E-2,-2.663161140E-3,-3.728425596E-3
1.975606075E0,1.225054078E-2,1.065264456E-3,-5.858954508E-3
1.978165113E0,1.065264456E-2,3.195793368E-3,-4.793690052E-3
1.979458922E0,1.544633508E-2,1.065264456E-2,-6.391586736E-3
1.982232228E0,1.331580617E-2,1.384843793E-2,-1.065264456E-2
1.983607075E0,9.054748341E-3,2.024002373E-2,-1.225054078E-2
1.986334690E0,7.456851192E-3,1.864212751E-2,-1.544633508E-2
1.987647960E0,2.663161140E-3,1.278317347E-2,-1.704423130E-2
1.990436997E0,-5.858954508E-3,1.597896684E-3,-1.864212751E-2
1.991735806E0,-7.456851192E-3,-3.728425596E-3,-1.810949668E-2
1.994539459E0,-9.587380104E-3,-8.522115648E-3,-1.757686399E-2
1.996061383E0,-9.054748341E-3,-5.858954508E-3,-1.651159860E-2
1.998580497E0,-6.924218964E-3,3.195793368E-3,-2.130528912E-2
1.999894806E0,-5.858954508E-3,1.331580617E-2,-1.757686399E-2
2.002509075E0,-3.195793368E-3,2.130528912E-2,-1.810949668E-2
2.004164729E0,-3.195793368E-3,2.183792181E-2,-1.810949668E-2
2.006749228E0,-3.728425596E-3,1.544633508E-2,-1.544633508E-2
2.008135537E0,-1.065264456E-3,4.261057824E-3,-1.491370238E-2
2.010401806E0,4.793690052E-3,-1.065264456E-2,-1.864212751E-2
2.012113960E0,1.384843793E-2,-1.171790902E-2,-2.024002373E-2
2.014633652E0,2.450108156E-2,-9.054748341E-3,-1.970739290E-2
2.016554614E0,3.515372798E-2,2.130528912E-3,-1.917476021E-2
2.018540268E0,3.675162420E-2,2.024002373E-2,-1.491370238E-2
2.020334498E0,4.048004746E-2,3.408846259E-2,-1.491370238E-2
2.022618114E0,3.834952042E-2,3.728425503E-2,-1.438106969E-2
2.024328152E0,3.568635881E-2,2.876213938E-2,-1.864212751E-2
2.027165613E0,2.663161233E-2,1.704423130E-2,-2.450108156E-2
2.028429575E0,1.864212751E-2,2.663161140E-3,-3.089267015E-2
2.030814729E0,1.278317347E-2,-1.171790902E-2,-3.302319720E-2
2.032542537E0,1.065264456E-2,-1.278317347E-2,-2.929477207E-2
2.034964191E0,9.587380104E-3,-5.326322280E-3,-2.396845073E-2
2.036911806E0,7.456851192E-3,4.261057824E-3,-1.757686399E-2
2.039042729E0,9.054748341E-3,1.810949668E-2,-1.491370238E-2
2.040761460E0,6.924218964E-3,2.769687586E-2,-1.544633508E-2
2.043392575E0,4.793690052E-3,2.876213938E-2,-2.077265643E-2
2.044845575E0,-1.065264456E-3,2.077265643E-2,-2.982740477E-2
2.047414614E0,-4.261057824E-3,9.054748341E-3,-3.621899337E-2
2.048843306E0,-6.391586736E-3,5.326322280E-4,-4.048004746E-2
2.051679151E0,-3.195793368E-3,-1.597896684E-3,-3.728425503E-2
2.053003306E0,5.326322280E-4,0.000000000E0,-3.249056637E-2
2.055781766E0,1.331580617E-2,6.924218964E-3,-2.343581803E-2
2.057399075E0,2.183792181E-2,1.651159860E-2,-1.704423130E-2
2.059833613E0,3.249056637E-2,2.396845073E-2,-1.438106969E-2
2.061220345E0,3.994741663E-2,2.503371425E-2,-1.491370238E-2
2.063900728E0,4.048004746E-2,2.503371425E-2,-1.864212751E-2
2.065466345E0,3.941478580E-2,1.864212751E-2,-2.609897964E-2
2.068002728E0,3.515372798E-2,1.012001187E-2,-3.195793182E-2
2.069449383E0,3.249056637E-2,4.261057824E-3,-3.355583176E-2
2.072104689E0,3.195793182E-2,4.793690052E-3,-2.982740477E-2
2.073393960E0,3.355583176E-2,1.065264456E-2,-2.716424316E-2
2.076207074E0,3.728425503E-2,1.597896591E-2,-2.290318534E-2
2.077804075E0,4.154531285E-2,2.077265643E-2,-2.183792181E-2
2.080243189E0,4.154531285E-2,2.450108156E-2,-2.024002373E-2
2.081494960E0,3.834952042E-2,2.343581803E-2,-2.183792181E-2
2.084124383E0,2.929477207E-2,1.757686399E-2,-2.503371425E-2
2.085629768E0,2.183792181E-2,1.065264456E-2,-2.769687586E-2
2.088413536E0,1.438106969E-2,7.456851192E-3,-3.462109342E-2
2.089791191E0,9.054748341E-3,5.326322280E-3,-3.834952042E-2
2.092066768E0,5.858954508E-3,1.065264456E-2,-3.994741663E-2
2.093773614E0,4.793690052E-3,1.544633508E-2,-3.728425503E-2
2.096266075E0,8.522115648E-3,1.970739290E-2,-3.355583176E-2
2.098321114E0,1.065264456E-2,2.876213938E-2,-2.929477207E-2
2.100200883E0,1.225054078E-2,2.929477207E-2,-2.769687586E-2
2.101969268E0,1.118527725E-2,2.450108156E-2,-2.556634694E-2
2.104285537E0,7.989482954E-3,1.864212751E-2,-2.929477207E-2
2.106004537E0,6.391586736E-3,1.065264456E-2,-3.249056637E-2
2.108452037E0,6.924218964E-3,4.793690052E-3,-3.462109342E-2
2.110110806E0,9.054748341E-3,2.663161140E-3,-3.621899337E-2
2.112588422E0,1.544633508E-2,1.065264456E-2,-3.621899337E-2
2.114203998E0,1.917476021E-2,1.491370238E-2,-3.568635881E-2
2.116638268E0,2.450108156E-2,2.556634694E-2,-3.195793182E-2
2.118459422E0,3.036003746E-2,3.142530099E-2,-3.195793182E-2
2.120639345E0,3.408846259E-2,2.929477207E-2,-3.089267015E-2
2.122440306E0,3.302319720E-2,2.556634694E-2,-3.302319720E-2
2.124895498E0,3.834952042E-2,1.864212751E-2,-3.675162420E-2
2.126444460E0,3.675162420E-2,1.171790902E-2,-4.048004746E-2
2.129250612E0,3.302319720E-2,6.391586736E-3,-3.941478580E-2
2.130537998E0,3.142530099E-2,1.012001187E-2,-3.994741663E-2
2.133352728E0,2.929477207E-2,1.810949668E-2,-3.675162420E-2
2.134654575E0,2.929477207E-2,2.396845073E-2,-3.568635881E-2
2.137454882E0,2.982740477E-2,2.769687586E-2,-3.675162420E-2
2.138968421E0,2.716424316E-2,2.876213938E-2,-3.568635881E-2
2.141499382E0,2.769687586E-2,2.396845073E-2,-4.048004746E-2
2.142718960E0,2.450108156E-2,1.864212751E-2,-3.994741663E-2
2.145566574E0,2.343581803E-2,1.384843793E-2,-4.367584363E-2
2.146873229E0,2.130528912E-2,1.331580617E-2,-4.314320907E-2
2.149669381E0,1.917476021E-2,1.065264456E-2,-4.207794741E-2
2.150883883E0,2.396845073E-2,1.491370238E-2,-3.888215125E-2
2.153771805E0,2.609897964E-2,1.864212751E-2,-3.834952042E-2
2.155008460E0,2.663161233E-2,2.237055451E-2,-3.728425503E-2
2.157874189E0,2.876213938E-2,2.716424316E-2,-3.781688958E-2
2.159324537E0,2.822950855E-2,2.609897964E-2,-4.207794741E-2
2.161908728E0,2.716424316E-2,2.503371425E-2,-4.474110901E-2
2.163192768E0,2.663161233E-2,2.290318534E-2,-4.633900523E-2
2.165774460E0,2.503371425E-2,1.651159860E-2,-4.846953228E-2
2.167236729E0,2.503371425E-2,1.651159860E-2,-4.740426689E-2
2.170077804E0,2.769687586E-2,1.597896591E-2,-4.740426689E-2
2.171338845E0,3.089267015E-2,1.864212751E-2,-4.633900523E-2
2.173896806E0,3.142530099E-2,2.130528912E-2,-4.261057824E-2
2.175416960E0,3.408846259E-2,2.396845073E-2,-4.314320907E-2
2.177850768E0,3.142530099E-2,2.716424316E-2,-4.048004746E-2
2.179708498E0,2.876213938E-2,2.556634694E-2,-4.207794741E-2
2.181863921E0,2.343581803E-2,2.450108156E-2,-4.580637068E-2
2.183586998E0,1.970739290E-2,1.810949668E-2,-4.580637068E-2
2.185921768E0,2.130528912E-2,1.438106969E-2,-4.793690145E-2
2.187653229E0,2.077265643E-2,1.171790902E-2,-4.793690145E-2
2.190369652E0,2.663161233E-2,1.491370238E-2,-4.580637068E-2
2.191848229E0,3.036003746E-2,1.970739290E-2,-4.261057824E-2
2.194146691E0,3.462109342E-2,2.609897964E-2,-4.101268202E-2
2.195968345E0,3.621899337E-2,2.929477207E-2,-3.888215125E-2
2.198293537E0,3.462109342E-2,2.929477207E-2,-4.101268202E-2
2.200196345E0,3.302319720E-2,2.556634694E-2,-4.527373984E-2
2.202268960E0,2.876213938E-2,2.024002373E-2,-5.006742850E-2
2.204028268E0,2.822950855E-2,1.651159860E-2,-5.379585549E-2
2.206592421E0,2.716424316E-2,1.544633508E-2,-5.539375171E-2
2.208195614E0,2.876213938E-2,1.864212751E-2,-5.539375171E-2
2.210874883E0,2.769687586E-2,2.077265643E-2,-5.113269389E-2
2.212184345E0,2.396845073E-2,2.876213938E-2,-4.687163606E-2
2.215016881E0,2.556634694E-2,2.982740477E-2,-4.314320907E-2
2.216280421E0,2.290318534E-2,2.822950855E-2,-4.420847446E-2
2.219119304E0,1.970739290E-2,2.822950855E-2,-4.687163606E-2
2.220593921E0,1.810949668E-2,2.077265643E-2,-5.219795927E-2
2.223174266E0,1.384843793E-2,1.651159860E-2,-5.592638254E-2
2.224390114E0,1.331580617E-2,1.438106969E-2,-5.592638254E-2
2.227241804E0,1.384843793E-2,1.384843793E-2,-5.645901710E-2
2.228485614E0,1.544633508E-2,1.864212751E-2,-5.219795927E-2
2.231343997E0,2.290318534E-2,2.237055451E-2,-4.687163606E-2
2.232729998E0,2.343581803E-2,2.769687586E-2,-4.367584363E-2
2.235446881E0,3.142530099E-2,3.036003746E-2,-4.154531285E-2
2.236726998E0,2.876213938E-2,2.663161233E-2,-4.367584363E-2
2.239549958E0,3.089267015E-2,2.450108156E-2,-4.687163606E-2
2.241248421E0,2.876213938E-2,1.970739290E-2,-4.953479767E-2
2.243592958E0,2.822950855E-2,1.704423130E-2,-4.953479767E-2
2.244883614E0,2.822950855E-2,1.704423130E-2,-5.113269389E-2
2.247629229E0,2.769687586E-2,1.810949668E-2,-4.900216311E-2
2.248940614E0,2.929477207E-2,2.396845073E-2,-4.687163606E-2
2.251764073E0,3.195793182E-2,2.769687586E-2,-4.261057824E-2
2.253023114E0,3.036003746E-2,3.142530099E-2,-4.207794741E-2
2.255402229E0,2.663161233E-2,2.876213938E-2,-4.101268202E-2
2.257336921E0,2.130528912E-2,2.343581803E-2,-4.314320907E-2
2.259526844E0,1.651159860E-2,1.757686399E-2,-4.527373984E-2
2.261413537E0,1.331580617E-2,1.438106969E-2,-4.527373984E-2
2.263561768E0,9.587380104E-3,1.065264456E-2,-4.740426689E-2
2.265222883E0,9.587380104E-3,1.171790902E-2,-4.687163606E-2
2.267612729E0,1.012001187E-2,1.438106969E-2,-4.580637068E-2
2.269499768E0,1.118527725E-2,1.757686399E-2,-4.474110901E-2
2.272186573E0,1.597896591E-2,2.343581803E-2,-4.154531285E-2
2.273521691E0,2.077265643E-2,2.290318534E-2,-4.048004746E-2
2.275828460E0,2.130528912E-2,2.396845073E-2,-3.994741663E-2
2.277552421E0,2.130528912E-2,1.917476021E-2,-4.207794741E-2
2.279955268E0,2.237055451E-2,1.810949668E-2,-4.367584363E-2
2.281859921E0,2.396845073E-2,1.278317347E-2,-4.580637068E-2
2.283951614E0,2.663161233E-2,1.225054078E-2,-4.527373984E-2
2.285622729E0,2.663161233E-2,9.587380104E-3,-4.420847446E-2
2.288274037E0,3.036003746E-2,1.704423130E-2,-4.367584363E-2
2.289810344E0,3.142530099E-2,2.024002373E-2,-3.941478580E-2
2.292483306E0,3.728425503E-2,2.290318534E-2,-3.728425503E-2
2.294029306E0,3.621899337E-2,2.343581803E-2,-3.568635881E-2
2.296699035E0,3.462109342E-2,1.864212751E-2,-3.728425503E-2
2.297949383E0,3.142530099E-2,1.438106969E-2,-3.888215125E-2
2.300801150E0,2.556634694E-2,5.326322280E-3,-4.154531285E-2
2.302232883E0,2.503371425E-2,7.989482954E-3,-4.367584363E-2
2.304852227E0,2.130528912E-2,6.391586736E-3,-4.367584363E-2
2.306367652E0,1.970739290E-2,1.065264456E-2,-4.207794741E-2
2.308919458E0,2.024002373E-2,1.331580617E-2,-3.781688958E-2
2.310234306E0,1.970739290E-2,2.024002373E-2,-3.515372798E-2
2.313020842E0,2.130528912E-2,2.024002373E-2,-3.515372798E-2
2.314284960E0,1.970739290E-2,1.757686399E-2,-3.515372798E-2
2.317122227E0,1.757686399E-2,1.331580617E-2,-3.781688958E-2
2.318446960E0,1.278317347E-2,9.587380104E-3,-4.154531285E-2
2.321224765E0,8.522115648E-3,6.391586736E-3,-4.101268202E-2
2.322909306E0,9.054748341E-3,6.924218964E-3,-4.314320907E-2
2.325258958E0,9.054748341E-3,6.924218964E-3,-3.888215125E-2
2.326507729E0,1.171790902E-2,1.225054078E-2,-3.834952042E-2
2.329326188E0,1.438106969E-2,1.491370238E-2,-3.462109342E-2
2.330634229E0,2.024002373E-2,1.544633508E-2,-3.089267015E-2
2.333428727E0,2.130528912E-2,1.651159860E-2,-3.142530099E-2
2.334692306E0,2.396845073E-2,1.491370238E-2,-3.089267015E-2
2.337391921E0,2.450108156E-2,1.065264456E-2,-3.355583176E-2
2.338855844E0,2.716424316E-2,6.391586736E-3,-3.515372798E-2
2.341416998E0,2.716424316E-2,4.261057824E-3,-3.462109342E-2
2.343087421E0,2.769687586E-2,6.391586736E-3,-3.728425503E-2
2.345285421E0,3.142530099E-2,1.012001187E-2,-3.355583176E-2
2.346887614E0,3.408846259E-2,1.171790902E-2,-3.089267015E-2
2.349723460E0,3.568635881E-2,1.917476021E-2,-2.929477207E-2
2.351005960E0,3.675162420E-2,1.864212751E-2,-2.929477207E-2
2.353522421E0,3.675162420E-2,1.491370238E-2,-2.663161233E-2
2.355142537E0,3.195793182E-2,1.278317347E-2,-2.716424316E-2
2.357535191E0,2.609897964E-2,6.924218964E-3,-3.036003746E-2
2.359203729E0,2.290318534E-2,4.793690052E-3,-3.089267015E-2
2.361640652E0,1.917476021E-2,5.326322280E-4,-3.195793182E-2
2.363510960E0,1.491370238E-2,4.261057824E-3,-2.929477207E-2
2.365674729E0,1.278317347E-2,8.522115648E-3,-2.982740477E-2
2.367394306E0,1.384843793E-2,1.278317347E-2,-2.929477207E-2
2.369801383E0,1.225054078E-2,1.491370238E-2,-2.663161233E-2
2.371538883E0,1.225054078E-2,1.438106969E-2,-2.556634694E-2
2.374264996E0,7.456851192E-3,1.065264456E-2,-2.609897964E-2
2.375706652E0,5.858954508E-3,9.054748341E-3,-2.663161233E-2
2.378367381E0,5.326322280E-3,1.065264456E-3,-2.769687586E-2
2.379641960E0,5.858954508E-3,-1.065264456E-3,-2.982740477E-2
2.382470150E0,8.522115648E-3,2.130528912E-3,-2.929477207E-2
2.383946075E0,1.438106969E-2,8.522115648E-3,-2.982740477E-2
2.386515304E0,1.917476021E-2,9.587380104E-3,-2.822950855E-2
2.387763614E0,2.450108156E-2,1.810949668E-2,-2.822950855E-2
2.390581996E0,2.822950855E-2,1.917476021E-2,-2.503371425E-2
2.391945960E0,3.036003746E-2,1.917476021E-2,-2.769687586E-2
2.394684034E0,2.876213938E-2,1.544633508E-2,-2.663161233E-2
2.395975921E0,2.876213938E-2,1.171790902E-2,-2.929477207E-2
2.398785765E0,2.769687586E-2,6.391586736E-3,-3.142530099E-2
2.400107844E0,2.769687586E-2,5.326322280E-3,-2.982740477E-2
2.402888342E0,2.450108156E-2,3.728425596E-3,-2.822950855E-2
2.404572767E0,2.290318534E-2,9.587380104E-3,-2.609897964E-2
2.406925457E0,2.503371425E-2,1.225054078E-2,-2.609897964E-2
2.408199075E0,2.237055451E-2,1.704423130E-2,-2.237055451E-2
2.410816921E0,1.810949668E-2,1.704423130E-2,-2.396845073E-2
2.412483075E0,1.597896591E-2,1.651159860E-2,-2.663161233E-2
2.415094688E0,1.384843793E-2,1.331580617E-2,-2.822950855E-2
2.416376191E0,7.989482954E-3,1.012001187E-2,-2.982740477E-2
2.418735960E0,9.587380104E-3,6.924218964E-3,-3.036003746E-2
2.420474421E0,7.989482954E-3,7.456851192E-3,-2.982740477E-2
2.422852537E0,8.522115648E-3,1.065264456E-2,-2.929477207E-2
2.424714383E0,1.331580617E-2,1.331580617E-2,-2.503371425E-2
2.426940883E0,1.597896591E-2,1.438106969E-2,-2.237055451E-2
2.428617229E0,1.917476021E-2,1.864212751E-2,-2.290318534E-2
2.430948614E0,2.130528912E-2,1.651159860E-2,-2.343581803E-2
2.432650383E0,2.183792181E-2,1.331580617E-2,-2.663161233E-2
2.435339306E0,2.237055451E-2,7.989482954E-3,-2.716424316E-2
2.437043075E0,2.130528912E-2,7.989482954E-3,-2.822950855E-2
2.439295344E0,2.396845073E-2,5.858954508E-3,-2.663161233E-2
2.441053767E0,2.556634694E-2,8.522115648E-3,-2.716424316E-2
2.443346960E0,2.609897964E-2,1.331580617E-2,-2.716424316E-2
2.445409844E0,2.876213938E-2,1.597896591E-2,-2.503371425E-2
2.447342921E0,3.036003746E-2,1.651159860E-2,-2.183792181E-2
2.449273344E0,2.822950855E-2,1.810949668E-2,-2.396845073E-2
2.451551614E0,2.450108156E-2,1.278317347E-2,-2.396845073E-2
2.453074498E0,2.183792181E-2,9.054748341E-3,-2.609897964E-2
2.455920190E0,1.970739290E-2,6.391586736E-3,-2.556634694E-2
2.457504229E0,1.917476021E-2,5.858954508E-3,-2.822950855E-2
2.460031111E0,1.704423130E-2,7.989482954E-3,-2.769687586E-2
2.461415767E0,1.704423130E-2,9.054748341E-3,-2.556634694E-2
2.464132919E0,1.810949668E-2,1.384843793E-2,-2.503371425E-2
2.465596267E0,2.130528912E-2,1.597896591E-2,-2.556634694E-2
2.468191380E0,2.290318534E-2,1.704423130E-2,-2.450108156E-2
2.469459690E0,1.917476021E-2,1.704423130E-2,-2.503371425E-2
2.472258149E0,2.077265643E-2,1.491370238E-2,-2.663161233E-2
2.473477729E0,1.917476021E-2,7.989482954E-3,-2.769687586E-2
2.476359688E0,1.917476021E-2,3.728425596E-3,-2.609897964E-2
2.477651537E0,2.024002373E-2,3.728425596E-3,-2.822950855E-2
2.480461688E0,1.970739290E-2,4.793690052E-3,-2.929477207E-2
2.481804306E0,2.183792181E-2,1.065264456E-2,-2.769687586E-2
2.484564380E0,2.290318534E-2,1.384843793E-2,-2.769687586E-2
2.486105114E0,2.822950855E-2,1.704423130E-2,-2.769687586E-2
2.488604457E0,2.663161233E-2,1.651159860E-2,-2.876213938E-2
2.490117229E0,2.769687586E-2,1.278317347E-2,-2.822950855E-2
2.492525344E0,2.769687586E-2,1.171790902E-2,-3.089267015E-2
2.493957383E0,2.769687586E-2,6.924218964E-3,-3.142530099E-2
2.496773688E0,2.556634694E-2,4.793690052E-3,-3.249056637E-2
2.498063190E0,2.396845073E-2,5.858954508E-3,-3.195793182E-2
2.500577037E0,2.396845073E-2,9.587380104E-3,-3.089267015E-2
2.502199190E0,2.503371425E-2,1.225054078E-2,-3.036003746E-2
2.504548267E0,2.503371425E-2,1.278317347E-2,-2.929477207E-2
2.506392767E0,2.183792181E-2,1.544633508E-2,-2.982740477E-2
2.508565960E0,1.864212751E-2,1.438106969E-2,-2.929477207E-2
2.510324921E0,1.491370238E-2,1.278317347E-2,-3.249056637E-2
2.512763306E0,1.544633508E-2,7.989482954E-3,-3.355583176E-2
2.514343421E0,1.171790902E-2,4.793690052E-3,-3.621899337E-2
2.517194111E0,6.924218964E-3,7.989482954E-3,-3.515372798E-2
2.518422383E0,7.456851192E-3,7.456851192E-3,-3.515372798E-2
2.520929960E0,9.587380104E-3,1.065264456E-2,-3.355583176E-2
2.522592767E0,1.012001187E-2,1.384843793E-2,-3.302319720E-2
2.525414265E0,9.054748341E-3,1.225054078E-2,-3.302319720E-2
2.526852383E0,8.522115648E-3,1.491370238E-2,-3.249056637E-2
2.529403690E0,9.587380104E-3,1.171790902E-2,-3.302319720E-2
2.530694114E0,8.522115648E-3,1.012001187E-2,-3.355583176E-2
2.533214998E0,8.522115648E-3,9.587380104E-3,-3.355583176E-2
2.534754498E0,1.012001187E-2,7.456851192E-3,-3.408846259E-2
2.537483306E0,1.118527725E-2,6.924218964E-3,-3.462109342E-2
2.538902383E0,1.331580617E-2,9.054748341E-3,-3.195793182E-2
2.541722842E0,1.757686399E-2,1.118527725E-2,-2.929477207E-2
2.542969883E0,1.810949668E-2,1.438106969E-2,-2.663161233E-2
2.545825226E0,2.183792181E-2,1.331580617E-2,-2.556634694E-2
2.547244229E0,1.917476021E-2,1.278317347E-2,-2.769687586E-2
2.549876534E0,1.651159860E-2,1.012001187E-2,-2.876213938E-2
2.551256114E0,1.757686399E-2,9.054748341E-3,-2.982740477E-2
2.553944034E0,1.544633508E-2,6.391586736E-3,-3.036003746E-2
2.555496690E0,1.278317347E-2,9.054748341E-3,-2.876213938E-2
2.558045995E0,1.544633508E-2,1.171790902E-2,-2.929477207E-2
2.559531921E0,1.704423130E-2,1.438106969E-2,-2.716424316E-2
2.562148841E0,1.917476021E-2,1.651159860E-2,-2.663161233E-2
2.563411152E0,1.757686399E-2,1.810949668E-2,-2.663161233E-2
2.566251534E0,1.544633508E-2,1.864212751E-2,-2.503371425E-2
2.567653575E0,1.384843793E-2,1.651159860E-2,-2.556634694E-2
2.570287418E0,1.331580617E-2,1.278317347E-2,-2.716424316E-2
2.571619652E0,1.171790902E-2,1.225054078E-2,-2.822950855E-2
2.574161267E0,1.331580617E-2,1.065264456E-2,-2.929477207E-2
2.575746883E0,1.278317347E-2,1.118527725E-2,-2.822950855E-2
2.578456688E0,1.225054078E-2,1.491370238E-2,-2.716424316E-2
2.579716767E0,1.278317347E-2,1.704423130E-2,-2.396845073E-2
2.582093690E0,1.704423130E-2,1.810949668E-2,-2.396845073E-2
2.583858690E0,1.544633508E-2,1.970739290E-2,-2.290318534E-2
2.586211767E0,1.491370238E-2,1.651159860E-2,-2.450108156E-2
2.588123190E0,1.331580617E-2,1.331580617E-2,-2.450108156E-2
2.590249306E0,1.491370238E-2,1.278317347E-2,-2.396845073E-2
2.592176037E0,1.384843793E-2,1.065264456E-2,-2.556634694E-2
2.594304229E0,1.331580617E-2,9.587380104E-3,-2.716424316E-2
2.596075306E0,1.491370238E-2,1.225054078E-2,-2.769687586E-2
2.598506690E0,1.597896591E-2,1.491370238E-2,-2.663161233E-2
2.600346152E0,1.810949668E-2,1.810949668E-2,-2.716424316E-2
2.602548267E0,1.757686399E-2,1.864212751E-2,-2.343581803E-2
2.604340460E0,1.810949668E-2,1.757686399E-2,-2.343581803E-2
2.606681229E0,1.864212751E-2,1.544633508E-2,-2.183792181E-2
2.608601883E0,1.704423130E-2,1.065264456E-2,-2.024002373E-2
2.610676306E0,1.810949668E-2,1.065264456E-2,-2.343581803E-2
2.612473190E0,1.704423130E-2,7.989482954E-3,-2.183792181E-2
2.614894729E0,1.757686399E-2,1.118527725E-2,-2.183792181E-2
2.616465306E0,1.864212751E-2,1.278317347E-2,-2.077265643E-2
2.619290034E0,1.864212751E-2,1.597896591E-2,-2.237055451E-2
2.620676960E0,2.024002373E-2,1.651159860E-2,-1.970739290E-2
2.623392341E0,1.864212751E-2,1.864212751E-2,-1.864212751E-2
2.624658998E0,1.970739290E-2,1.704423130E-2,-1.917476021E-2
2.627495149E0,1.757686399E-2,1.331580617E-2,-2.077265643E-2
2.629301613E0,1.917476021E-2,5.858954508E-3,-1.864212751E-2
2.631539610E0,2.077265643E-2,-1.065264456E-3,-1.597896591E-2
2.632770075E0,2.183792181E-2,-5.858954508E-3,-1.544633508E-2
2.635606418E0,2.876213938E-2,-3.728425596E-3,-1.810949668E-2
2.637215844E0,3.036003746E-2,1.171790902E-2,-2.503371425E-2
2.639708110E0,2.663161233E-2,2.716424316E-2,-3.195793182E-2
2.641045690E0,2.343581803E-2,3.941478580E-2,-3.355583176E-2
2.643809649E0,1.225054078E-2,4.474110901E-2,-3.142530099E-2
2.645074998E0,5.858954508E-3,3.302319720E-2,-2.822950855E-2
2.647911264E0,-2.130528912E-3,1.651159860E-2,-2.183792181E-2
2.649361844E0,-7.989482954E-3,-4.793690052E-3,-1.544633508E-2
2.651946187E0,-1.225054078E-2,-1.438106969E-2,-1.810949668E-2
2.653280190E0,-1.438106969E-2,-1.491370238E-2,-2.024002373E-2
2.655936306E0,-1.438106969E-2,-3.728425596E-3,-2.396845073E-2
2.657389344E0,-1.118527725E-2,1.491370238E-2,-2.556634694E-2
2.660114533E0,-6.924218964E-3,2.929477207E-2,-2.183792181E-2
2.661384960E0,-5.858954508E-3,3.408846259E-2,-1.704423130E-2
2.663815613E0,-2.663161140E-3,2.876213938E-2,-1.171790902E-2
2.665526767E0,1.118527725E-2,2.663161140E-3,-1.384843793E-2
2.667880306E0,2.556634694E-2,-2.130528912E-2,-2.024002373E-2
2.669757036E0,4.580637068E-2,-3.462109342E-2,-2.556634694E-2
2.671961036E0,6.018744037E-2,-2.503371425E-2,-2.396845073E-2
2.673569806E0,7.510114461E-2,2.130528912E-3,-2.024002373E-2
2.676023652E0,7.616640627E-2,3.834952042E-2,-1.171790902E-2
2.677707613E0,6.817692518E-2,6.231797114E-2,-4.261057824E-3
2.680368229E0,5.805691332E-2,6.870955974E-2,-1.012001187E-2
2.681862229E0,4.154531285E-2,5.379585549E-2,-1.757686399E-2
2.684161883E0,2.130528912E-2,2.450108156E-2,-2.822950855E-2
2.685925344E0,1.065264456E-3,-6.924218964E-3,-3.249056637E-2
2.688373113E0,-1.278317347E-2,-3.355583176E-2,-3.355583176E-2
2.690183383E0,-2.290318534E-2,-3.515372798E-2,-2.556634694E-2
2.692335498E0,-2.343581803E-2,-2.716424316E-2,-1.331580617E-2
2.694007498E0,-1.810949668E-2,-3.195793368E-3,3.195793368E-3
2.696563113E0,-1.651159860E-2,2.237055451E-2,7.456851192E-3
2.698149729E0,-1.491370238E-2,3.941478580E-2,3.195793368E-3
2.700809536E0,-1.651159860E-2,4.527373984E-2,-1.118527725E-2
2.702180498E0,-2.343581803E-2,3.462109342E-2,-2.929477207E-2
2.705049649E0,-2.663161233E-2,1.544633508E-2,-4.633900523E-2
2.706300844E0,-2.929477207E-2,-3.195793368E-3,-4.953479767E-2
2.709152187E0,-2.450108156E-2,-1.491370238E-2,-4.367584363E-2
2.710617960E0,-1.544633508E-2,-1.438106969E-2,-2.663161233E-2
2.713207495E0,5.326322280E-4,-5.326322280E-3,-7.989482954E-3
2.714479383E0,2.503371425E-2,8.522115648E-3,3.728425596E-3
2.717273956E0,4.101268202E-2,1.917476021E-2,6.924218964E-3
2.718543113E0,5.379585549E-2,2.716424316E-2,6.391586736E-3
2.721376033E0,5.752427876E-2,2.769687586E-2,-2.663161140E-3
2.722771921E0,5.219795927E-2,2.130528912E-2,-1.118527725E-2
2.725477764E0,3.781688958E-2,4.261057824E-3,-1.864212751E-2
2.726744421E0,3.249056637E-2,-3.195793368E-3,-1.704423130E-2
2.729579264E0,2.716424316E-2,-8.522115648E-3,-1.384843793E-2
2.730992921E0,2.982740477E-2,-3.195793368E-3,-9.054748341E-3
2.733620110E0,3.568635881E-2,3.728425596E-3,-5.326322280E-4
2.734835075E0,3.781688958E-2,1.171790902E-2,3.728425596E-3
2.737628729E0,3.888215125E-2,1.597896591E-2,1.118527725E-2
2.738975998E0,3.355583176E-2,1.438106969E-2,1.171790902E-2
2.741789264E0,2.343581803E-2,7.989482954E-3,7.456851192E-3
2.743046190E0,7.989482954E-3,3.195793368E-3,-1.065264456E-3
2.745891187E0,-8.522115648E-3,-4.261057824E-3,-1.438106969E-2
2.747225229E0,-2.077265643E-2,-5.326322280E-3,-2.982740477E-2
2.749657306E0,-2.929477207E-2,3.195793368E-3,-3.621899337E-2
2.751475960E0,-3.515372798E-2,1.118527725E-2,-3.515372798E-2
2.753622536E0,-3.568635881E-2,2.024002373E-2,-2.716424316E-2
2.755276575E0,-3.834952042E-2,2.716424316E-2,-1.491370238E-2
2.757634421E0,-4.261057824E-2,2.716424316E-2,-4.793690052E-3
2.759391960E0,-4.474110901E-2,1.970739290E-2,2.663161140E-3
2.762206918E0,-4.846953228E-2,4.261057824E-3,2.130528912E-3
2.763514344E0,-5.219795927E-2,-9.054748341E-3,-2.130528912E-3
2.765878152E0,-4.953479767E-2,-2.024002373E-2,-9.054748341E-3
2.767597536E0,-4.580637068E-2,-2.343581803E-2,-1.065264456E-2
2.770083998E0,-3.302319720E-2,-1.544633508E-2,-1.171790902E-2
2.771934229E0,-1.438106969E-2,-5.326322280E-4,-5.326322280E-3
2.774354575E0,7.989482954E-3,1.225054078E-2,-5.326322280E-4
2.775732921E0,3.142530099E-2,2.077265643E-2,5.326322280E-3
2.778166459E0,5.592638254E-2,2.183792181E-2,8.522115648E-3
2.779797690E0,7.510114461E-2,1.544633508E-2,7.456851192E-3
2.782478998E0,8.468852192E-2,4.261057824E-3,2.663161140E-3
2.783873498E0,8.681905270E-2,-3.195793368E-3,2.663161140E-3
2.786716225E0,7.510114461E-2,-1.065264456E-3,1.597896684E-3
2.788091998E0,5.858954415E-2,4.261057824E-3,2.130528912E-3
2.790817225E0,3.941478580E-2,9.587380104E-3,2.663161140E-3
2.792208806E0,1.917476021E-2,1.012001187E-2,1.597896684E-3
2.794869110E0,5.326322280E-4,1.171790902E-2,-1.065264456E-3
2.796185421E0,-1.970739290E-2,8.522115648E-3,-3.195793368E-3
2.798936110E0,-3.515372798E-2,0.000000000E0,-2.663161140E-3
2.800198306E0,-4.793690145E-2,-1.065264456E-2,-3.728425596E-3
2.803038417E0,-5.805691332E-2,-1.491370238E-2,-3.195793368E-3
2.804637229E0,-6.391586363E-2,-1.544633508E-2,5.326322280E-3
2.807140764E0,-6.764429063E-2,-1.118527725E-2,4.793690052E-3
2.808433844E0,-6.444849819E-2,-6.924218964E-3,6.924218964E-3
2.811242956E0,-5.912217870E-2,-2.663161140E-3,4.261057824E-3
2.812753921E0,-4.953479767E-2,2.130528912E-3,-3.195793368E-3
2.815277917E0,-3.781688958E-2,-9.054748341E-3,-2.663161140E-3
2.816499383E0,-2.237055451E-2,-1.651159860E-2,-3.195793368E-3
2.819247075E0,-7.456851192E-3,-1.491370238E-2,-1.065264456E-3
2.820675498E0,9.054748341E-3,-2.396845073E-2,6.924218964E-3
2.823445036E0,2.183792181E-2,-2.982740477E-2,1.491370238E-2
2.824707883E0,4.048004746E-2,-3.089267015E-2,1.597896591E-2
2.827138729E0,5.326322466E-2,-2.024002373E-2,1.225054078E-2
2.828812113E0,5.219795927E-2,-1.438106969E-2,1.970739290E-2
2.831247729E0,5.060006306E-2,-2.556634694E-2,2.450108156E-2
2.833099344E0,4.314320907E-2,-8.522115648E-3,2.024002373E-2
2.835538729E0,1.970739290E-2,4.261057824E-3,2.769687586E-2
2.836982575E0,7.456851192E-3,-6.817692518E-2,5.805691332E-2
2.839304652E0,-1.651159860E-2,-3.515372798E-2,5.006742850E-2
2.841026767E0,-5.486112088E-2,-1.384843793E-2,4.793690145E-2
2.843505575E0,-9.800432622E-2,-4.953479767E-2,6.870955974E-2
2.845273383E0,-1.225054115E-1,-3.568635881E-2,5.006742850E-2
2.847562613E0,-1.075917110E-1,-3.089267015E-2,5.326322280E-3
2.849240959E0,-1.081243455E-1,-1.118527725E-2,-1.118527725E-2
2.851729883E0,-1.022653878E-1,6.391586736E-3,-1.384843793E-2
2.853526806E0,-7.723167539E-2,4.900216311E-2,-2.929477207E-2
2.855807844E0,-4.420847446E-2,8.681905270E-2,-3.941478580E-2
2.857553190E0,-2.183792181E-2,7.616640627E-2,-2.876213938E-2
2.859901844E0,-7.989482954E-3,7.616640627E-2,-2.343581803E-2
2.861602844E0,9.054748341E-3,5.965480953E-2,-1.970739290E-2
2.864224652E0,2.716424316E-2,2.183792181E-2,-1.438106969E-2
2.865566613E0,3.089267015E-2,-1.331580617E-2,-2.663161140E-3
2.868373186E0,2.876213938E-2,-3.728425503E-2,1.438106969E-2
2.869749190E0,4.101268202E-2,-3.675162420E-2,1.810949668E-2
2.872474109E0,6.338323653E-2,-4.580637068E-2,2.024002373E-2
2.873912383E0,8.948221803E-2,-4.633900523E-2,2.237055451E-2
2.876519148E0,1.091896072E-1,-2.716424316E-2,2.503371425E-2
2.877762344E0,1.193096191E-1,5.326322280E-3,2.237055451E-2
2.880585186E0,1.155811921E-1,4.048004746E-2,1.225054078E-2
2.882191113E0,9.640643001E-2,5.326322466E-2,3.728425596E-3
2.884686609E0,7.297061384E-2,4.474110901E-2,-6.924218964E-3
2.886209613E0,5.006742850E-2,2.343581803E-2,-1.917476021E-2
2.888788494E0,2.024002373E-2,1.065264456E-3,-2.609897964E-2
2.890050190E0,-1.171790902E-2,-9.054748341E-3,-1.810949668E-2
2.892889840E0,-5.539375171E-2,-1.065264456E-3,-5.326322280E-4
2.894328421E0,-8.788431436E-2,1.544633508E-2,1.864212751E-2
2.896923725E0,-1.001348570E-1,1.118527725E-2,3.249056637E-2
2.898252959E0,-9.906959534E-2,-2.130528912E-3,3.781688958E-2
2.900866613E0,-9.161274135E-2,-3.195793368E-3,2.929477207E-2
2.902457998E0,-8.522115648E-2,-9.587380104E-3,2.503371425E-2
2.905091609E0,-6.870955974E-2,6.924218964E-3,1.384843793E-2
2.906401382E0,-5.539375171E-2,3.462109342E-2,6.924218964E-3
2.908727921E0,-3.249056637E-2,5.219795927E-2,2.077265643E-2
2.910532113E0,-9.587380104E-3,4.687163606E-2,3.941478580E-2
2.912894421E0,1.597896591E-2,3.675162420E-2,5.166532472E-2
2.914791152E0,2.663161233E-2,3.302319720E-2,6.498113275E-2
2.916900113E0,2.077265643E-2,3.355583176E-2,7.723167539E-2
2.918826690E0,6.391586736E-3,3.621899337E-2,8.415589482E-2
2.921006459E0,-5.326322280E-4,3.249056637E-2,7.989483327E-2
2.922685190E0,-4.261057824E-3,2.183792181E-2,6.977482140E-2
2.925361575E0,-3.195793368E-3,1.225054078E-2,6.444849819E-2
2.926790344E0,-4.793690052E-3,2.343581803E-2,6.178534031E-2
2.929494498E0,-6.924218964E-3,5.379585549E-2,6.178534031E-2
2.930951690E0,-1.012001187E-2,8.309062570E-2,6.338323653E-2
2.933395921E0,-1.331580617E-2,1.043959185E-1,6.604639441E-2
2.935254652E0,-1.917476021E-2,1.081243455E-1,6.764429063E-2
2.937495075E0,-2.290318534E-2,9.587380290E-2,6.870955974E-2
2.939585229E0,-3.036003746E-2,6.444849819E-2,7.243798673E-2
2.941582459E0,-4.101268202E-2,4.580637068E-2,7.829693705E-2
2.943344075E0,-5.965480953E-2,4.740426689E-2,8.255799860E-2
2.945920686E0,-7.243798673E-2,5.699164793E-2,8.841694891E-2
2.947232306E0,-7.190535218E-2,5.858954415E-2,9.161274135E-2
2.950022186E0,-5.645901710E-2,6.178534031E-2,8.522115648E-2
2.951335536E0,-3.142530099E-2,6.285060197E-2,8.309062570E-2
2.954123609E0,-6.391586736E-3,6.285060197E-2,8.149272949E-2
2.955605882E0,1.651159860E-2,7.190535218E-2,7.616640627E-2
2.958177725E0,3.408846259E-2,9.161274135E-2,7.510114461E-2
2.959461690E0,4.687163606E-2,1.017327532E-1,7.137271762E-2
2.962244186E0,5.379585549E-2,9.747169912E-2,6.977482140E-2
2.963562075E0,6.231797114E-2,9.214537591E-2,6.391586363E-2
2.966345725E0,6.072007492E-2,8.309062570E-2,5.858954415E-2
2.967641536E0,3.089267015E-2,8.149272949E-2,6.285060197E-2
2.970447455E0,3.195793368E-3,8.788431436E-2,6.711166352E-2
2.971713806E0,-2.503371425E-2,8.948221803E-2,6.977482140E-2
2.974548840E0,-4.367584363E-2,8.202536404E-2,6.977482140E-2
2.976012190E0,-5.965480953E-2,7.030745596E-2,6.391586363E-2
2.978589378E0,-6.977482140E-2,6.498113275E-2,5.965480953E-2
2.979874882E0,-8.575379103E-2,6.977482140E-2,5.645901710E-2
2.982559652E0,-9.480853379E-2,8.149272949E-2,5.486112088E-2
2.983949959E0,-1.049285457E-1,9.480853379E-2,5.432848632E-2
2.986758801E0,-1.001348570E-1,9.800432622E-2,5.539375171E-2
2.988177998E0,-9.001484513E-2,9.214537591E-2,5.539375171E-2
2.990508921E0,-7.297061384E-2,7.882957160E-2,5.486112088E-2
2.992122305E0,-6.125270575E-2,7.723167539E-2,5.858954415E-2
2.994514844E0,-4.846953228E-2,8.149272949E-2,6.444849819E-2
2.996383921E0,-3.675162420E-2,8.042746782E-2,7.190535218E-2
2.998543729E0,-1.438106969E-2,8.096009493E-2,7.510114461E-2
3.000233459E0,1.065264456E-2,7.243798673E-2,7.829693705E-2
3.002628113E0,3.462109342E-2,6.711166352E-2,8.362326026E-2
3.004365729E0,5.379585549E-2,6.444849819E-2,8.735168725E-2
3.007177801E0,6.764429063E-2,6.711166352E-2,8.788431436E-2
3.008415729E0,7.776430249E-2,7.510114461E-2,8.468852192E-2
3.010860998E0,8.149272949E-2,7.616640627E-2,8.309062570E-2
3.012592575E0,7.829693705E-2,7.616640627E-2,7.882957160E-2
3.015006959E0,7.030745596E-2,6.870955974E-2,7.350324839E-2
3.016937882E0,4.953479767E-2,6.498113275E-2,6.870955974E-2
3.019043998E0,2.237055451E-2,6.764429063E-2,6.551376730E-2
3.020680498E0,-1.757686399E-2,6.764429063E-2,6.657902896E-2
3.023134575E0,-5.805691332E-2,6.604639441E-2,6.338323653E-2
3.024756921E0,-9.214537591E-2,5.805691332E-2,5.752427876E-2
3.027549459E0,-1.315601617E-1,3.462109342E-2,5.006742850E-2
3.029410113E0,-1.502022892E-1,2.396845073E-2,4.580637068E-2
3.031692147E0,-1.624528319E-1,2.503371425E-2,4.420847446E-2
3.033030305E0,-1.597896665E-1,2.929477207E-2,4.474110901E-2
3.035794763E0,-1.491370201E-1,3.302319720E-2,3.728425503E-2
3.037526190E0,-1.267664731E-1,3.568635881E-2,3.355583176E-2
3.039846532E0,-9.374327213E-2,3.781688958E-2,2.876213938E-2
3.041053382E0,-6.231797114E-2,3.568635881E-2,2.450108156E-2
3.043914801E0,-2.663161233E-2,3.408846259E-2,2.343581803E-2
3.045324805E0,2.130528912E-3,3.249056637E-2,2.130528912E-2
3.048017801E0,2.929477207E-2,2.929477207E-2,2.343581803E-2
3.049625690E0,5.273059011E-2,2.556634694E-2,2.343581803E-2
3.052120763E0,7.190535218E-2,1.704423130E-2,2.450108156E-2
3.053550229E0,8.309062570E-2,1.171790902E-2,2.450108156E-2
3.056223647E0,9.108011425E-2,5.858954508E-3,2.503371425E-2
3.058029152E0,9.054747969E-2,6.391586736E-3,2.290318534E-2
3.060258570E0,9.054747969E-2,1.278317347E-2,1.864212751E-2
3.061469190E0,8.362326026E-2,1.544633508E-2,1.171790902E-2
3.064203459E0,7.776430249E-2,1.384843793E-2,6.391586736E-3
3.065604882E0,6.604639441E-2,1.864212751E-2,3.195793368E-3
3.068429378E0,5.166532472E-2,1.917476021E-2,1.597896684E-3
3.069865344E0,3.302319720E-2,1.864212751E-2,1.597896684E-3
3.072179229E0,1.225054078E-2,1.810949668E-2,2.130528912E-3
3.074000805E0,-7.989482954E-3,1.225054078E-2,2.130528912E-3
3.076280805E0,-2.663161233E-2,6.924218964E-3,6.391586736E-3
3.078063959E0,-4.101268202E-2,-6.391586736E-3,5.326322280E-3
3.080217536E0,-4.900216311E-2,-1.171790902E-2,6.391586736E-3
3.081905305E0,-5.592638254E-2,-1.278317347E-2,7.456851192E-3
3.084279844E0,-6.018744037E-2,-9.054748341E-3,1.118527725E-2
3.086258613E0,-5.858954415E-2,-4.793690052E-3,1.438106969E-2
3.088463959E0,-4.633900523E-2,2.130528912E-3,1.438106969E-2
3.090093690E0,-3.408846259E-2,5.326322280E-4,7.989482954E-3
3.092542536E0,-2.077265643E-2,-2.130528912E-3,5.858954508E-3
3.094198536E0,-1.331580617E-2,-6.391586736E-3,5.326322280E-3
3.096604421E0,-4.793690052E-3,-7.456851192E-3,2.663161140E-3
3.098461844E0,3.195793368E-3,-6.924218964E-3,1.597896684E-3
3.100622575E0,5.858954508E-3,-9.054748341E-3,0.000000000E0
3.102399421E0,9.587380104E-3,-1.065264456E-2,5.326322280E-4
3.104852690E0,1.171790902E-2,-1.118527725E-2,-5.326322280E-4
3.106411075E0,7.989482954E-3,-9.054748341E-3,-2.130528912E-3
3.109264070E0,2.130528912E-3,-1.491370238E-2,-5.326322280E-4
3.110470075E0,0.000000000E0,-1.544633508E-2,-3.195793368E-3
3.113366609E0,-4.261057824E-3,-1.651159860E-2,-6.391586736E-3
3.114674228E0,-2.663161140E-3,-1.864212751E-2,-9.587380104E-3
3.117468685E0,-3.728425596E-3,-2.077265643E-2,-8.522115648E-3
3.118896152E0,-3.728425596E-3,-2.024002373E-2,-8.522115648E-3
3.121515185E0,-6.924218964E-3,-1.810949668E-2,-7.456851192E-3
3.122732690E0,-7.989482954E-3,-1.970739290E-2,-4.793690052E-3
3.125583455E0,-1.171790902E-2,-1.917476021E-2,-1.597896684E-3
3.126846382E0,-1.544633508E-2,-2.237055451E-2,-2.130528912E-3
3.129686455E0,-2.183792181E-2,-2.929477207E-2,-4.793690052E-3
3.130972075E0,-2.343581803E-2,-3.781688958E-2,-7.989482954E-3
3.133791108E0,-2.929477207E-2,-4.314320907E-2,-6.391586736E-3
3.135059767E0,-2.929477207E-2,-4.474110901E-2,-9.054748341E-3
3.137894416E0,-2.556634694E-2,-4.207794741E-2,-9.054748341E-3
3.139632305E0,-1.917476021E-2,-4.101268202E-2,-9.054748341E-3
3.141930993E0,-6.924218964E-3,-3.675162420E-2,-1.065264456E-2
3.143147036E0,7.456851192E-3,-2.769687586E-2,-1.331580617E-2
3.145876228E0,1.864212751E-2,-2.716424316E-2,-1.331580617E-2
3.147339152E0,3.675162420E-2,-1.225054078E-2,-1.651159860E-2
3.150101921E0,3.888215125E-2,-1.544633508E-2,-1.704423130E-2
3.151352959E0,4.101268202E-2,-1.491370238E-2,-1.597896591E-2
3.153772536E0,4.101268202E-2,-2.343581803E-2,-1.438106969E-2
3.155655344E0,3.675162420E-2,-2.609897964E-2,-1.171790902E-2
3.157875652E0,3.515372798E-2,-3.408846259E-2,-1.012001187E-2
3.159738575E0,2.929477207E-2,-3.089267015E-2,-5.858954508E-3
3.161893382E0,1.864212751E-2,-2.450108156E-2,-5.326322280E-3
3.163657421E0,1.012001187E-2,-9.587380104E-3,-2.130528912E-3
3.166051575E0,0.000000000E0,-1.225054078E-2,2.663161140E-3
3.167679459E0,-1.278317347E-2,-3.195793368E-3,5.326322280E-3
3.170352075E0,-2.290318534E-2,-1.331580617E-2,8.522115648E-3
3.171785344E0,-3.515372798E-2,-9.587380104E-3,5.858954508E-3
3.174201459E0,-4.527373984E-2,-1.118527725E-2,3.195793368E-3
3.175891190E0,-5.060006306E-2,-1.278317347E-2,6.924218964E-3
3.178329498E0,-5.912217870E-2,-1.171790902E-2,1.118527725E-2
3.180171267E0,-5.805691332E-2,-1.012001187E-2,1.438106969E-2
3.182300921E0,-5.752427876E-2,-1.065264456E-3,1.491370238E-2
3.184009382E0,-5.432848632E-2,1.065264456E-3,2.130528912E-2
3.186792228E0,-5.166532472E-2,-1.065264456E-3,2.716424316E-2
3.188140690E0,-4.261057824E-2,2.663161140E-3,2.556634694E-2
3.190901805E0,-3.036003746E-2,1.065264456E-3,2.237055451E-2
3.192311459E0,-1.491370238E-2,-5.858954508E-3,2.183792181E-2
3.195048070E0,-5.326322280E-4,-1.544633508E-2,1.917476021E-2
3.196487228E0,1.651159860E-2,-1.438106969E-2,2.077265643E-2
3.199150877E0,3.089267015E-2,-1.065264456E-3,1.757686399E-2
3.200593882E0,4.367584363E-2,5.858954508E-3,1.970739290E-2
3.203206877E0,5.006742850E-2,1.331580617E-2,1.970739290E-2
3.204690113E0,5.539375171E-2,1.544633508E-2,1.810949668E-2
3.207274570E0,6.178534031E-2,-1.597896684E-3,1.438106969E-2
3.208520959E0,5.379585549E-2,-9.587380104E-3,1.491370238E-2
3.211377493E0,4.314320907E-2,-1.491370238E-2,1.438106969E-2
3.212682267E0,2.609897964E-2,-1.118527725E-2,1.597896591E-2
3.215480300E0,1.438106969E-2,-1.704423130E-2,1.810949668E-2
3.216722536E0,2.130528912E-3,-1.651159860E-2,1.864212751E-2
3.219583108E0,-7.989482954E-3,-1.544633508E-2,1.917476021E-2
3.221423151E0,-1.917476021E-2,-1.012001187E-2,1.917476021E-2
3.223649647E0,-3.355583176E-2,-6.391586736E-3,2.024002373E-2
3.224874882E0,-4.154531285E-2,4.261057824E-3,1.651159860E-2
3.227591767E0,-4.633900523E-2,1.597896684E-3,1.118527725E-2
3.229045036E0,-4.420847446E-2,-3.195793368E-3,9.587380104E-3
3.231820839E0,-4.793690145E-2,-4.793690052E-3,9.054748341E-3
3.233259921E0,-4.154531285E-2,-1.597896684E-3,7.989482954E-3
3.235539651E0,-4.154531285E-2,-5.326322280E-4,1.491370238E-2
3.237501190E0,-3.621899337E-2,2.663161140E-3,1.917476021E-2
3.239637805E0,-3.195793182E-2,5.858954508E-3,2.024002373E-2
3.241664536E0,-2.290318534E-2,3.728425596E-3,2.343581803E-2
3.243618228E0,-1.438106969E-2,-5.326322280E-3,1.810949668E-2
3.245850421E0,-3.195793368E-3,-8.522115648E-3,2.077265643E-2
3.247697190E0,0.000000000E0,-9.587380104E-3,2.077265643E-2
3.249553690E0,3.195793368E-3,-1.012001187E-2,2.077265643E-2
3.252238723E0,1.118527725E-2,-7.456851192E-3,2.396845073E-2
3.253506036E0,1.970739290E-2,-2.130528912E-3,2.183792181E-2
3.255875575E0,2.716424316E-2,4.261057824E-3,2.130528912E-2
3.257782575E0,2.929477207E-2,1.597896684E-3,2.556634694E-2
3.260071998E0,2.556634694E-2,1.065264456E-2,3.036003746E-2
3.261929805E0,1.384843793E-2,7.456851192E-3,3.355583176E-2
3.264067305E0,4.261057824E-3,1.065264456E-3,3.355583176E-2
3.265740228E0,-3.195793368E-3,-6.924218964E-3,3.142530099E-2
3.268180305E0,-1.012001187E-2,-1.491370238E-2,2.929477207E-2
3.269802651E0,-1.810949668E-2,-1.331580617E-2,2.876213938E-2
3.272491228E0,-2.450108156E-2,-1.384843793E-2,3.568635881E-2
3.273951421E0,-2.716424316E-2,-1.065264456E-3,3.834952042E-2
3.276755223E0,-2.396845073E-2,4.793690052E-3,4.367584363E-2
3.278074344E0,-2.183792181E-2,8.522115648E-3,4.527373984E-2
3.280859031E0,-2.290318534E-2,1.438106969E-2,4.580637068E-2
3.282363767E0,-2.290318534E-2,1.331580617E-2,4.367584363E-2
3.284910685E0,-2.769687586E-2,1.491370238E-2,3.994741663E-2
3.286246882E0,-2.982740477E-2,1.065264456E-2,3.781688958E-2
3.288978262E0,-3.089267015E-2,1.012001187E-2,3.834952042E-2
3.290265844E0,-2.876213938E-2,9.587380104E-3,4.261057824E-2
3.293081916E0,-2.556634694E-2,1.118527725E-2,4.154531285E-2
3.294373190E0,-2.130528912E-2,1.544633508E-2,4.793690145E-2
3.297184800E0,-1.757686399E-2,1.917476021E-2,5.326322466E-2
3.298542459E0,-1.651159860E-2,2.716424316E-2,5.592638254E-2
3.301287069E0,-1.597896591E-2,3.036003746E-2,5.805691332E-2
3.302793075E0,-1.118527725E-2,2.556634694E-2,5.326322466E-2
3.305322531E0,-1.225054078E-2,2.929477207E-2,5.219795927E-2
3.306614074E0,-1.704423130E-2,2.450108156E-2,4.953479767E-2
3.309390300E0,-2.503371425E-2,1.065264456E-2,5.379585549E-2
3.310708651E0,-2.929477207E-2,5.326322466E-2,4.101268202E-2
3.313493185E0,-2.130528912E-2,2.024002373E-2,5.486112088E-2
3.314808305E0,-3.408846259E-2,2.237055451E-2,6.125270575E-2
3.317299190E0,-4.261057824E-2,4.314320907E-2,5.912217870E-2
3.318902651E0,-3.249056637E-2,2.077265643E-2,6.711166352E-2
3.321303382E0,-4.687163606E-2,2.237055451E-2,7.030745596E-2
3.323228574E0,-4.740426689E-2,1.810949668E-2,7.190535218E-2
3.325346882E0,-5.486112088E-2,1.704423130E-2,7.350324839E-2
3.326954190E0,-5.699164793E-2,2.396845073E-2,6.764429063E-2
3.329345382E0,-4.900216311E-2,2.450108156E-2,6.018744037E-2
3.331150536E0,-4.154531285E-2,2.609897964E-2,4.793690145E-2
3.333649844E0,-3.036003746E-2,4.527373984E-2,4.261057824E-2
3.335214074E0,-1.810949668E-2,5.539375171E-2,4.633900523E-2
3.337783190E0,-4.793690052E-3,7.829693705E-2,5.166532472E-2
3.339482190E0,2.130528912E-3,7.190535218E-2,6.444849819E-2
3.341801921E0,1.225054078E-2,5.805691332E-2,7.456851006E-2
3.343583536E0,1.278317347E-2,5.219795927E-2,7.669904083E-2
3.346163800E0,3.195793368E-3,3.781688958E-2,8.362326026E-2
3.347530805E0,-1.704423130E-2,3.195793182E-2,9.001484513E-2
3.349925113E0,-3.355583176E-2,3.195793182E-2,8.841694891E-2
3.351558305E0,-4.633900523E-2,3.302319720E-2,8.255799860E-2
3.354335300E0,-5.273059011E-2,3.302319720E-2,7.616640627E-2
3.355723074E0,-5.219795927E-2,3.675162420E-2,7.084008306E-2
3.358438338E0,-5.166532472E-2,5.113269389E-2,6.764429063E-2
3.359954498E0,-5.060006306E-2,7.030745596E-2,6.870955974E-2
3.362542031E0,-5.166532472E-2,8.149272949E-2,7.563377917E-2
3.363992151E0,-5.166532472E-2,8.096009493E-2,8.309062570E-2
3.366587723E0,-5.166532472E-2,6.977482140E-2,8.575379103E-2
3.367928305E0,-5.113269389E-2,4.793690145E-2,8.575379103E-2
3.370655454E0,-4.953479767E-2,2.929477207E-2,8.628641814E-2
3.372019267E0,-5.539375171E-2,2.822950855E-2,8.468852192E-2
3.374758069E0,-6.125270575E-2,3.781688958E-2,8.362326026E-2
3.376083882E0,-6.018744037E-2,4.580637068E-2,8.681905270E-2
3.378860608E0,-4.580637068E-2,4.261057824E-2,8.788431436E-2
3.380144305E0,-1.544633508E-2,4.740426689E-2,7.989483327E-2
3.382963646E0,5.326322280E-4,5.699164793E-2,7.616640627E-2
3.384570998E0,6.391586736E-3,6.657902896E-2,7.829693705E-2
3.387000454E0,6.924218964E-3,7.510114461E-2,7.882957160E-2
3.388254844E0,1.118527725E-2,6.870955974E-2,8.096009493E-2
3.390891767E0,1.171790902E-2,4.900216311E-2,7.936219871E-2
3.392614882E0,9.054748341E-3,3.728425503E-2,7.350324839E-2
3.395172454E0,-3.728425596E-3,3.142530099E-2,7.190535218E-2
3.396703767E0,-2.077265643E-2,3.888215125E-2,7.403588295E-2
3.398814344E0,-3.888215125E-2,5.166532472E-2,7.403588295E-2
3.400586690E0,-4.900216311E-2,6.072007492E-2,7.403588295E-2
3.403013767E0,-5.379585549E-2,5.699164793E-2,7.137271762E-2
3.404835344E0,-4.900216311E-2,4.367584363E-2,7.030745596E-2
3.407101574E0,-4.633900523E-2,4.154531285E-2,6.711166352E-2
3.408656728E0,-4.846953228E-2,4.580637068E-2,6.604639441E-2
3.411026190E0,-5.645901710E-2,5.539375171E-2,7.137271762E-2
3.412752959E0,-5.965480953E-2,6.444849819E-2,7.190535218E-2
3.415442113E0,-5.379585549E-2,5.965480953E-2,6.711166352E-2
3.416861421E0,-4.101268202E-2,5.166532472E-2,6.391586363E-2
3.419301728E0,-2.982740477E-2,4.261057824E-2,6.391586363E-2
3.421085497E0,-2.876213938E-2,5.326322466E-2,6.551376730E-2
3.423406305E0,-3.302319720E-2,6.604639441E-2,7.350324839E-2
3.425642921E0,-2.876213938E-2,7.243798673E-2,7.989483327E-2
3.427547036E0,-2.024002373E-2,6.498113275E-2,8.202536404E-2
3.429401574E0,-9.587380104E-3,5.539375171E-2,7.882957160E-2
3.431545421E0,-2.663161140E-3,5.166532472E-2,7.563377917E-2
3.433303382E0,-6.391586736E-3,5.592638254E-2,7.829693705E-2
3.435885882E0,-1.384843793E-2,6.977482140E-2,7.776430249E-2
3.437475921E0,-2.183792181E-2,7.616640627E-2,7.829693705E-2
3.440107300E0,-2.077265643E-2,7.936219871E-2,7.510114461E-2
3.441397036E0,-1.810949668E-2,7.616640627E-2,7.030745596E-2
3.444210453E0,-2.237055451E-2,7.243798673E-2,7.297061384E-2
3.445854344E0,-3.462109342E-2,7.616640627E-2,7.563377917E-2
3.448266723E0,-4.633900523E-2,8.841694891E-2,8.149272949E-2
3.449685613E0,-5.645901710E-2,8.362326026E-2,8.575379103E-2
3.452335300E0,-5.965480953E-2,7.829693705E-2,8.628641814E-2
3.453703959E0,-5.858954415E-2,6.817692518E-2,8.522115648E-2
3.456438800E0,-5.752427876E-2,6.018744037E-2,8.468852192E-2
3.457778497E0,-5.699164793E-2,6.711166352E-2,8.096009493E-2
3.460542530E0,-5.699164793E-2,7.563377917E-2,8.362326026E-2
3.461798882E0,-4.740426689E-2,8.735168725E-2,8.362326026E-2
3.464646415E0,-3.355583176E-2,9.054747969E-2,8.255799860E-2
3.466145036E0,-1.651159860E-2,8.628641814E-2,8.362326026E-2
3.468687530E0,-3.195793368E-3,8.788431436E-2,8.096009493E-2
3.469895613E0,3.728425596E-3,8.468852192E-2,8.468852192E-2
3.472756684E0,6.924218964E-3,9.214537591E-2,8.522115648E-2
3.474096728E0,1.171790902E-2,9.321063757E-2,8.415589482E-2
3.476860453E0,1.651159860E-2,9.267801046E-2,8.096009493E-2
3.478118882E0,1.651159860E-2,8.096009493E-2,8.362326026E-2
3.480483305E0,1.491370238E-2,8.681905270E-2,8.202536404E-2
3.482145421E0,7.456851192E-3,8.948221803E-2,8.362326026E-2
3.484640613E0,-1.065264456E-3,7.936219871E-2,9.214537591E-2
3.486616421E0,-4.261057824E-3,8.575379103E-2,8.735168725E-2
3.488661844E0,-1.278317347E-2,8.681905270E-2,8.362326026E-2
3.490336228E0,-1.491370238E-2,9.374327213E-2,8.096009493E-2
3.492712421E0,-2.130528912E-2,7.616640627E-2,8.681905270E-2
3.494485151E0,-2.929477207E-2,9.480853379E-2,8.096009493E-2
3.497286184E0,-2.822950855E-2,7.882957160E-2,8.362326026E-2
3.498631459E0,-3.728425503E-2,8.575379103E-2,7.723167539E-2
3.501295305E0,-5.326322466E-2,9.161274135E-2,7.456851006E-2
3.502723728E0,-5.273059011E-2,9.374327213E-2,6.870955974E-2
3.505085228E0,-5.006742850E-2,8.522115648E-2,7.030745596E-2
3.506884459E0,-4.953479767E-2,8.202536404E-2,7.456851006E-2
3.509044344E0,-5.006742850E-2,8.042746782E-2,8.149272949E-2
3.510725190E0,-4.900216311E-2,6.604639441E-2,9.001484513E-2
3.513292459E0,-4.101268202E-2,7.936219871E-2,8.362326026E-2
3.514918267E0,-3.621899337E-2,7.989483327E-2,8.362326026E-2
3.517608228E0,-3.249056637E-2,8.149272949E-2,7.563377917E-2
3.518955305E0,-2.609897964E-2,8.202536404E-2,6.870955974E-2
3.521807530E0,-1.491370238E-2,8.628641814E-2,5.645901710E-2
3.523056767E0,-4.793690052E-3,9.214537591E-2,5.699164793E-2
3.525912069E0,-2.130528912E-3,8.681905270E-2,6.178534031E-2
3.527318728E0,-1.065264456E-3,1.006674916E-1,6.604639441E-2
3.529965069E0,-2.130528912E-3,9.693906456E-2,6.924218684E-2
3.531292651E0,-2.130528912E-3,8.522115648E-2,6.977482140E-2
3.534033992E0,-1.597896684E-3,7.403588295E-2,6.711166352E-2
3.535308690E0,-6.924218964E-3,6.817692518E-2,6.125270575E-2
3.538137722E0,-1.225054078E-2,6.924218684E-2,5.912217870E-2
3.539510420E0,-1.757686399E-2,6.817692518E-2,6.178534031E-2
3.542241722E0,-2.609897964E-2,7.669904083E-2,6.178534031E-2
3.543521344E0,-2.556634694E-2,7.510114461E-2,6.231797114E-2
3.546345607E0,-2.183792181E-2,7.723167539E-2,5.699164793E-2
3.547733997E0,-1.757686399E-2,7.989483327E-2,5.113269389E-2
3.550383222E0,-1.384843793E-2,7.882957160E-2,4.953479767E-2
3.551577267E0,-1.810949668E-2,7.882957160E-2,4.900216311E-2
3.554203613E0,-1.704423130E-2,7.989483327E-2,5.060006306E-2
3.555669959E0,-1.544633508E-2,7.403588295E-2,5.060006306E-2
3.558535767E0,-1.544633508E-2,7.137271762E-2,4.740426689E-2
3.559776997E0,-1.225054078E-2,6.604639441E-2,5.006742850E-2
3.562313574E0,-1.384843793E-2,6.498113275E-2,4.900216311E-2
3.563941113E0,-1.278317347E-2,7.030745596E-2,4.580637068E-2
3.566335151E0,-7.456851192E-3,6.924218684E-2,4.740426689E-2
3.568193574E0,-1.065264456E-3,6.764429063E-2,4.580637068E-2
3.570418959E0,6.924218964E-3,6.657902896E-2,4.527373984E-2
3.572038344E0,6.391586736E-3,6.764429063E-2,4.314320907E-2
3.574645228E0,1.171790902E-2,7.723167539E-2,3.941478580E-2
3.576110959E0,1.491370238E-2,7.243798673E-2,4.154531285E-2
3.578617920E0,1.278317347E-2,7.350324839E-2,3.888215125E-2
3.580167305E0,9.587380104E-3,8.096009493E-2,3.621899337E-2
3.582625920E0,6.391586736E-3,6.924218684E-2,3.302319720E-2
3.584323767E0,2.663161140E-3,6.711166352E-2,2.982740477E-2
3.586753420E0,1.065264456E-3,6.125270575E-2,3.036003746E-2
3.588603305E0,-3.728425596E-3,5.645901710E-2,2.982740477E-2
3.590726074E0,-3.195793368E-3,5.006742850E-2,3.834952042E-2
3.592490420E0,-1.597896684E-3,5.219795927E-2,3.994741663E-2
3.594909267E0,-2.663161140E-3,5.432848632E-2,3.781688958E-2
3.596552844E0,-6.391586736E-3,4.793690145E-2,3.675162420E-2
3.599341959E0,-4.261057824E-3,4.687163606E-2,2.929477207E-2
3.600620305E0,5.326322280E-3,4.261057824E-2,1.970739290E-2
3.603505184E0,-1.065264456E-3,5.006742850E-2,1.171790902E-2
3.605044613E0,-1.331580617E-2,6.498113275E-2,1.118527725E-2
3.607608453E0,-1.491370238E-2,4.527373984E-2,1.491370238E-2
3.609001305E0,0.000000000E0,4.740426689E-2,3.195793368E-3
3.611654568E0,1.171790902E-2,3.195793182E-2,-1.065264456E-3
3.612880497E0,1.012001187E-2,2.450108156E-2,3.728425596E-3
3.615723184E0,4.793690052E-3,2.077265643E-2,1.384843793E-2
3.616972805E0,1.012001187E-2,2.663161233E-2,1.118527725E-2
3.619826607E0,1.970739290E-2,1.970739290E-2,2.663161140E-3
3.621861030E0,1.810949668E-2,8.522115648E-3,1.597896684E-3
3.623924997E0,1.704423130E-2,4.261057824E-3,-4.793690052E-3
3.625168074E0,1.438106969E-2,1.757686399E-2,-1.810949668E-2
3.628033837E0,1.065264456E-2,1.225054078E-2,-2.450108156E-2
3.629423843E0,1.171790902E-2,0.000000000E0,-2.503371425E-2
3.632070068E0,2.024002373E-2,5.326322280E-4,-2.982740477E-2
3.633252305E0,2.290318534E-2,-2.130528912E-3,-3.036003746E-2
3.635931305E0,1.917476021E-2,-1.065264456E-3,-2.450108156E-2
3.637328767E0,1.118527725E-2,5.326322280E-4,-2.077265643E-2
3.640189113E0,6.391586736E-3,3.195793368E-3,-2.343581803E-2
3.641434997E0,5.326322280E-4,-3.195793368E-3,-3.036003746E-2
3.643839343E0,-6.391586736E-3,-6.924218964E-3,-3.302319720E-2
3.645543151E0,-1.970739290E-2,-1.331580617E-2,-3.515372798E-2
3.647966920E0,-2.396845073E-2,-1.864212751E-2,-3.302319720E-2
3.649836382E0,-2.024002373E-2,-2.663161233E-2,-3.142530099E-2
3.652016882E0,-1.970739290E-2,-2.663161233E-2,-2.982740477E-2
3.653714074E0,-8.522115648E-3,-2.343581803E-2,-2.450108156E-2
3.656058382E0,-7.456851192E-3,-1.597896591E-2,-2.077265643E-2
3.657780997E0,0.000000000E0,-1.225054078E-2,-2.237055451E-2
3.660342574E0,9.587380104E-3,-1.491370238E-2,-2.556634694E-2
3.661868497E0,1.597896591E-2,-1.810949668E-2,-2.982740477E-2
3.664264997E0,1.917476021E-2,-2.450108156E-2,-3.355583176E-2
3.666045574E0,1.757686399E-2,-2.716424316E-2,-3.834952042E-2
3.668400459E0,1.651159860E-2,-2.663161233E-2,-3.781688958E-2
3.670253805E0,1.384843793E-2,-2.556634694E-2,-3.834952042E-2
3.672379459E0,1.491370238E-2,-1.970739290E-2,-3.728425503E-2
3.674074267E0,1.810949668E-2,-2.609897964E-2,-3.302319720E-2
3.676542459E0,2.183792181E-2,-3.249056637E-2,-2.982740477E-2
3.678165190E0,1.810949668E-2,-3.036003746E-2,-2.822950855E-2
3.680876151E0,1.384843793E-2,-2.663161233E-2,-2.929477207E-2
3.682285151E0,6.391586736E-3,-3.142530099E-2,-3.355583176E-2
3.685194183E0,3.728425596E-3,-3.195793182E-2,-4.101268202E-2
3.686387497E0,7.456851192E-3,-3.249056637E-2,-4.900216311E-2
3.689297299E0,9.054748341E-3,-3.675162420E-2,-4.953479767E-2
3.690674228E0,1.012001187E-2,-3.568635881E-2,-4.687163606E-2
3.693353491E0,1.438106969E-2,-2.556634694E-2,-4.420847446E-2
3.694525805E0,1.278317347E-2,-1.970739290E-2,-3.621899337E-2
3.697421914E0,1.171790902E-2,-1.810949668E-2,-3.089267015E-2
3.698624805E0,1.171790902E-2,-2.077265643E-2,-3.142530099E-2
3.701525260E0,1.278317347E-2,-3.089267015E-2,-3.408846259E-2
3.702747767E0,1.438106969E-2,-3.941478580E-2,-3.728425503E-2
3.705627876E0,1.331580617E-2,-4.261057824E-2,-3.675162420E-2
3.706824728E0,1.384843793E-2,-3.781688958E-2,-3.355583176E-2
3.709730837E0,1.491370238E-2,-2.876213938E-2,-3.036003746E-2
3.711102728E0,2.130528912E-2,-2.183792181E-2,-2.822950855E-2
3.713766882E0,2.609897964E-2,-1.864212751E-2,-2.609897964E-2
3.714932805E0,3.568635881E-2,-1.917476021E-2,-2.556634694E-2
3.717574997E0,3.408846259E-2,-1.651159860E-2,-2.450108156E-2
3.719040459E0,3.089267015E-2,-1.331580617E-2,-2.237055451E-2
3.721941414E0,2.237055451E-2,-1.597896591E-2,-2.024002373E-2
3.723134920E0,1.917476021E-2,-1.917476021E-2,-2.024002373E-2
3.725515651E0,1.597896591E-2,-2.822950855E-2,-2.077265643E-2
3.727275690E0,1.544633508E-2,-2.822950855E-2,-2.077265643E-2
3.729660997E0,1.544633508E-2,-2.663161233E-2,-1.810949668E-2
3.731559536E0,1.118527725E-2,-1.597896591E-2,-1.225054078E-2
3.733740497E0,9.587380104E-3,-7.456851192E-3,-5.326322280E-3
3.735405843E0,1.118527725E-2,-3.195793368E-3,-3.195793368E-3
3.737759036E0,9.054748341E-3,-9.054748341E-3,-5.326322280E-4
3.739505690E0,6.924218964E-3,-1.225054078E-2,-5.858954508E-3
3.742359222E0,2.663161140E-3,-1.544633508E-2,-7.456851192E-3
3.743580343E0,-3.195793368E-3,-1.278317347E-2,-7.989482954E-3
3.745957459E0,-1.012001187E-2,-7.456851192E-3,-6.924218964E-3
3.747682766E0,-1.118527725E-2,-6.391586736E-3,-3.728425596E-3
3.750175151E0,-8.522115648E-3,-3.728425596E-3,-1.065264456E-3
3.751946959E0,-8.522115648E-3,-2.130528912E-3,2.663161140E-3
3.754139420E0,-5.326322280E-3,2.130528912E-3,3.728425596E-3
3.755793536E0,-9.054748341E-3,7.989482954E-3,6.391586736E-3
3.758243805E0,-9.587380104E-3,9.054748341E-3,9.054748341E-3
3.759931151E0,-1.118527725E-2,4.793690052E-3,6.391586736E-3
3.762623228E0,-5.326322280E-3,-1.065264456E-3,6.924218964E-3
3.764004882E0,-5.326322280E-4,-6.391586736E-3,4.793690052E-3
3.766875106E0,1.065264456E-3,-5.858954508E-3,5.326322280E-3
3.768083536E0,3.728425596E-3,5.326322280E-3,9.054748341E-3
3.770977914E0,5.858954508E-3,1.225054078E-2,1.065264456E-2
3.772383151E0,1.012001187E-2,1.810949668E-2,1.331580617E-2
3.775030298E0,1.597896591E-2,1.491370238E-2,1.544633508E-2
3.776221305E0,2.077265643E-2,1.225054078E-2,1.384843793E-2
3.779097644E0,1.810949668E-2,9.587380104E-3,1.544633508E-2
3.780334074E0,1.225054078E-2,1.012001187E-2,1.331580617E-2
3.783200183E0,7.989482954E-3,1.065264456E-2,1.544633508E-2
3.784577459E0,2.663161140E-3,1.065264456E-2,1.331580617E-2
3.787303644E0,3.195793368E-3,1.118527725E-2,1.331580617E-2
3.788540113E0,2.663161140E-3,1.065264456E-2,1.544633508E-2
3.791406644E0,-1.065264456E-3,1.970739290E-2,2.077265643E-2
3.792839190E0,-2.663161140E-3,2.609897964E-2,2.609897964E-2
3.795441760E0,-8.522115648E-3,3.142530099E-2,3.089267015E-2
3.796631766E0,-1.331580617E-2,3.036003746E-2,3.355583176E-2
3.799330805E0,-1.704423130E-2,2.663161233E-2,3.249056637E-2
3.800829420E0,-1.757686399E-2,2.450108156E-2,3.036003746E-2
3.803612260E0,-2.077265643E-2,2.183792181E-2,3.195793182E-2
3.804889920E0,-2.503371425E-2,2.503371425E-2,3.462109342E-2
3.807428766E0,-2.822950855E-2,3.355583176E-2,3.834952042E-2
3.808969497E0,-2.450108156E-2,4.633900523E-2,4.154531285E-2
3.811383228E0,-2.290318534E-2,4.633900523E-2,4.367584363E-2
3.813270882E0,-1.810949668E-2,5.006742850E-2,4.633900523E-2
3.815388728E0,-1.651159860E-2,5.006742850E-2,5.006742850E-2
3.817207305E0,-1.597896591E-2,4.793690145E-2,5.166532472E-2
3.819437959E0,-1.278317347E-2,4.580637068E-2,5.326322466E-2
3.821270228E0,-1.118527725E-2,4.207794741E-2,5.060006306E-2
3.823637190E0,-7.989482954E-3,3.781688958E-2,5.219795927E-2
3.825273036E0,-1.597896684E-3,3.675162420E-2,5.219795927E-2
3.827646382E0,-1.065264456E-3,5.113269389E-2,5.273059011E-2
3.829391690E0,-5.326322280E-3,5.912217870E-2,5.219795927E-2
3.831790651E0,-1.597896684E-3,5.645901710E-2,5.326322466E-2
3.833641382E0,1.597896684E-3,6.285060197E-2,4.687163606E-2
3.835784843E0,4.793690052E-3,6.072007492E-2,4.261057824E-2
3.837478613E0,5.326322280E-4,5.486112088E-2,4.580637068E-2
3.839959728E0,-1.597896684E-3,4.900216311E-2,4.740426689E-2
3.841607690E0,0.000000000E0,4.846953228E-2,4.420847446E-2
3.844424151E0,-2.130528912E-3,4.846953228E-2,4.580637068E-2
3.845780305E0,-3.728425596E-3,4.474110901E-2,5.060006306E-2
3.848553913E0,-6.391586736E-3,4.527373984E-2,4.900216311E-2
3.849839113E0,-6.391586736E-3,4.740426689E-2,4.420847446E-2
3.852655683E0,-3.195793368E-3,3.781688958E-2,4.154531285E-2
3.854174382E0,-1.597896684E-3,3.888215125E-2,3.941478580E-2
3.856699029E0,-5.326322280E-3,4.367584363E-2,3.888215125E-2
3.857944151E0,-1.757686399E-2,5.166532472E-2,3.355583176E-2
3.860766567E0,-2.609897964E-2,4.048004746E-2,3.621899337E-2
3.862135805E0,-1.597896591E-2,3.302319720E-2,2.450108156E-2
3.864868952E0,-1.118527725E-2,3.994741663E-2,1.757686399E-2
3.866210189E0,-2.237055451E-2,2.876213938E-2,2.663161233E-2
3.868970913E0,-2.663161233E-2,2.556634694E-2,3.036003746E-2
3.870250574E0,-1.544633508E-2,3.675162420E-2,2.343581803E-2
3.873073260E0,-6.391586736E-3,2.663161233E-2,2.396845073E-2
3.874602151E0,-1.065264456E-2,2.503371425E-2,2.609897964E-2
3.877106721E0,-1.225054078E-2,2.343581803E-2,2.769687586E-2
3.878494959E0,-8.522115648E-3,2.290318534E-2,2.183792181E-2
3.880941728E0,-3.195793368E-3,2.077265643E-2,1.597896591E-2
3.882377189E0,-1.065264456E-3,1.331580617E-2,1.704423130E-2
3.885277067E0,-1.065264456E-3,5.858954508E-3,1.597896591E-2
3.886524113E0,3.195793368E-3,1.171790902E-2,1.278317347E-2
3.889380106E0,4.793690052E-3,1.278317347E-2,1.491370238E-2
3.890627997E0,3.728425596E-3,1.171790902E-2,1.651159860E-2
3.893302689E0,1.065264456E-3,8.522115648E-3,1.864212751E-2
3.894894113E0,1.597896684E-3,5.858954508E-3,1.704423130E-2
3.897227189E0,2.130528912E-3,-1.065264456E-3,1.278317347E-2
3.898727613E0,-2.663161140E-3,-6.924218964E-3,8.522115648E-3
3.901279036E0,-8.522115648E-3,-7.456851192E-3,5.858954508E-3
3.902846343E0,-7.989482954E-3,-1.012001187E-2,1.597896684E-3
3.905530728E0,-5.858954508E-3,-1.012001187E-2,-1.597896684E-3
3.906998189E0,-5.858954508E-3,-4.261057824E-3,-1.597896684E-3
3.909453689E0,-6.391586736E-3,-4.261057824E-3,-2.130528912E-3
3.911043920E0,-6.391586736E-3,-3.728425596E-3,-5.326322280E-4
3.913498959E0,-7.989482954E-3,0.000000000E0,-2.663161140E-3
3.915307343E0,-1.065264456E-2,-3.728425596E-3,-4.793690052E-3
3.917442651E0,-1.331580617E-2,-1.491370238E-2,-3.728425596E-3
3.919166497E0,-1.491370238E-2,-1.438106969E-2,-4.261057824E-3
3.921767574E0,-1.491370238E-2,-1.544633508E-2,-2.130528912E-3
3.923259151E0,-1.544633508E-2,-1.171790902E-2,-5.326322280E-4
3.925949459E0,-1.491370238E-2,-8.522115648E-3,0.000000000E0
3.927348882E0,-1.438106969E-2,-9.054748341E-3,3.728425596E-3
3.930223221E0,-7.456851192E-3,-7.989482954E-3,5.326322280E-4
3.931442651E0,-3.195793368E-3,-6.391586736E-3,2.130528912E-3
3.934326144E0,3.195793368E-3,-4.261057824E-3,-5.326322280E-4
3.935779689E0,2.130528912E-3,-6.391586736E-3,-1.597896684E-3
3.938381413E0,1.597896684E-3,-1.065264456E-2,-2.663161140E-3
3.939573689E0,7.989482954E-3,-6.391586736E-3,-5.858954508E-3
3.942446497E0,7.456851192E-3,-4.793690052E-3,-5.858954508E-3
3.943662497E0,6.924218964E-3,-1.118527725E-2,-3.195793368E-3
3.946552644E0,9.587380104E-3,-1.171790902E-2,-3.195793368E-3
3.947892882E0,5.858954508E-3,-7.456851192E-3,-4.793690052E-3
3.950655682E0,4.793690052E-3,-4.261057824E-3,-1.597896684E-3
3.951877536E0,1.065264456E-3,-4.261057824E-3,5.326322280E-4
3.954758798E0,0.000000000E0,-4.793690052E-3,-1.065264456E-3
3.956207536E0,1.597896684E-3,-5.858954508E-3,-4.261057824E-3
3.958801221E0,-5.326322280E-4,-9.587380104E-3,-3.195793368E-3
3.959982766E0,-4.261057824E-3,-1.438106969E-2,-5.326322280E-4
3.962662843E0,-1.597896684E-3,-8.522115648E-3,-3.195793368E-3
3.964193036E0,-1.065264456E-3,-6.924218964E-3,-5.326322280E-4
3.966973451E0,2.663161140E-3,-5.858954508E-3,5.858954508E-3
3.968156805E0,1.597896684E-3,-2.663161140E-3,5.858954508E-3
3.970573843E0,5.326322280E-3,-1.597896684E-3,5.326322280E-3
3.972280112E0,2.130528912E-3,-1.065264456E-3,7.989482954E-3
3.974703151E0,-2.663161140E-3,-1.065264456E-3,1.331580617E-2
3.976595536E0,-3.728425596E-3,-5.326322280E-3,1.384843793E-2
3.978760074E0,-3.195793368E-3,-7.456851192E-3,1.225054078E-2
3.980432651E0,-3.195793368E-3,-9.587380104E-3,1.118527725E-2
3.982793882E0,-5.326322280E-3,-7.456851192E-3,1.278317347E-2
3.984490959E0,-4.793690052E-3,-3.728425596E-3,1.704423130E-2
3.987396990E0,-6.924218964E-3,0.000000000E0,1.810949668E-2
3.988585036E0,-4.793690052E-3,-1.065264456E-3,2.077265643E-2
3.991029651E0,-5.326322280E-4,-2.663161140E-3,1.864212751E-2
3.992710228E0,-3.195793368E-3,-6.391586736E-3,1.491370238E-2
3.995141343E0,-4.793690052E-3,-8.522115648E-3,1.704423130E-2
3.996980382E0,-5.858954508E-3,-9.587380104E-3,1.331580617E-2
3.999303420E0,-9.587380104E-3,-1.065264456E-2,1.225054078E-2
4.000848689E0,-1.012001187E-2,-5.858954508E-3,1.331580617E-2
4.003323843E0,-1.491370238E-2,-6.391586736E-3,1.225054078E-2
4.004948420E0,-1.651159860E-2,-5.326322280E-3,1.065264456E-2
4.007613189E0,-1.757686399E-2,-4.793690052E-3,8.522115648E-3
4.009047382E0,-1.864212751E-2,-1.597896684E-3,6.924218964E-3
4.011912913E0,-2.290318534E-2,-5.326322280E-4,7.456851192E-3
4.013166689E0,-2.396845073E-2,1.065264456E-3,6.924218964E-3
4.016015682E0,-2.290318534E-2,0.000000000E0,6.391586736E-3
4.017475651E0,-2.024002373E-2,-4.261057824E-3,7.456851192E-3
4.020067105E0,-1.970739290E-2,-5.326322280E-3,9.587380104E-3
4.021436920E0,-1.864212751E-2,1.065264456E-3,1.171790902E-2
4.024134990E0,-1.704423130E-2,4.793690052E-3,1.331580617E-2
4.025350689E0,-1.438106969E-2,4.261057824E-3,1.384843793E-2
4.028236682E0,-1.171790902E-2,4.793690052E-3,1.597896591E-2
4.029438689E0,-1.118527725E-2,7.989482954E-3,1.438106969E-2
4.032338759E0,-7.989482954E-3,3.728425596E-3,1.704423130E-2
4.033631459E0,-5.858954508E-3,5.326322280E-3,1.970739290E-2
4.036441259E0,-5.858954508E-3,7.989482954E-3,1.810949668E-2
4.037886536E0,-3.728425596E-3,5.858954508E-3,1.757686399E-2
4.040476797E0,-5.326322280E-4,5.858954508E-3,1.757686399E-2
4.041684612E0,2.130528912E-3,6.924218964E-3,1.757686399E-2
4.044366920E0,2.130528912E-3,1.118527725E-2,1.917476021E-2
4.045999574E0,0.000000000E0,1.810949668E-2,2.183792181E-2
4.048620920E0,1.065264456E-3,2.024002373E-2,2.450108156E-2
4.049911420E0,5.326322280E-4,2.024002373E-2,2.450108156E-2
