"Time (s)","Acceleration x (m/s^2)","Acceleration y (m/s^2)","Acceleration z (m/s^2)"
6.103557000E-3,7.165845871E0,6.217741966E0,8.999804497E0
7.754885000E-3,1.342907715E1,6.457161903E0,2.291250944E0
9.513808000E-3,1.256477070E1,5.813121796E0,-4.285621047E-1
1.132073100E-2,8.178592682E0,4.271255970E0,-3.703830004E0
1.386896200E-2,3.169923067E0,4.958391666E0,-2.212242365E0
1.546580800E-2,-1.709460020E0,9.742006302E0,3.811569214E0
1.797680800E-2,-1.073081207E1,1.582567310E1,1.076193619E1
1.952034600E-2,-1.490629959E1,1.461899567E1,1.022324085E1
2.191769200E-2,-1.350329781E1,1.077151299E1,8.058882713E0
2.364057700E-2,-6.318298340E0,7.426813602E0,6.174646378E0
2.655440300E-2,3.110068083E0,6.435614109E0,5.075707436E0
2.784038500E-2,1.037886429E1,7.029376030E0,3.593696833E0
3.003284600E-2,1.301248646E1,6.622362137E0,4.501099288E-1
3.179607700E-2,1.138682365E1,5.810727596E0,-2.592920542E0
3.418115400E-2,7.319074631E0,6.691793919E0,-2.643198729E0
3.584611500E-2,1.582567334E0,1.003170490E1,3.998316824E-1
3.822253900E-2,-6.203376770E0,1.479856110E1,5.202600479E0
3.994676900E-2,-1.377144814E1,1.707784081E1,8.906430244E0
4.235676900E-2,-1.764047813E1,1.619677544E1,1.126232433E1
4.406050000E-2,-1.584961510E1,1.200213337E1,1.213381386E1
4.697674900E-2,-8.542511940E0,6.040570736E0,1.046745014E1
4.849011500E-2,1.867477298E0,3.090914488E0,8.858546257E0
5.104540300E-2,1.097023201E1,3.742137194E0,7.580042362E0
5.221603900E-2,1.480095482E1,5.054159641E0,4.668693542E0
5.511119200E-2,1.286883450E1,5.046977043E0,6.799532771E-1
5.631573100E-2,7.776367188E0,4.860229492E0,-1.335964561E0
5.921971000E-2,1.841141105E0,6.818686485E0,6.703764796E-1
6.045819200E-2,-4.893748283E0,1.095107841E1,4.680664539E0
6.331953900E-2,-1.212184334E1,1.421437550E1,7.613561630E0
6.459919200E-2,-1.723825264E1,1.419043350E1,8.054094315E0
6.742959500E-2,-1.693897629E1,1.238041687E1,8.075642586E0
6.915773100E-2,-6.385335922E0,7.704541206E0,6.418854713E0
7.146492300E-2,-1.956062794E0,6.033388138E0,4.829104900E0
7.261992300E-2,5.509057999E0,4.764461517E0,2.133233786E0
7.553797900E-2,1.111149025E1,6.184223175E0,-4.788403213E-2
7.670276900E-2,1.030464458E1,5.554547787E0,-1.795651317E0
7.961142300E-2,6.335057735E0,5.489904404E0,-1.264138460E0
8.085492300E-2,1.185129881E0,7.771578789E0,1.422155857E0
8.361900000E-2,-4.642356873E0,1.253604031E1,5.152322292E0
8.499119200E-2,-1.049618053E1,1.614888954E1,7.445967197E0
8.785151800E-2,-1.460223579E1,1.568680954E1,7.137115479E0
8.953657700E-2,-1.377144814E1,1.244745445E1,6.837840080E0
9.130357700E-2,-6.734889507E0,8.604761124E0,6.610390663E0
9.312773100E-2,3.742137194E0,6.375759125E0,6.011840343E0
9.557215400E-2,1.250491524E1,6.842628479E0,4.548983097E0
9.721638500E-2,1.612734222E1,8.269572258E0,2.152387381E0
9.963050000E-2,1.465730286E1,7.232883453E0,-1.426944256E0
1.013107310E-1,1.054406452E1,4.534617901E0,-3.813963413E0
1.036815380E-1,5.853823185E0,5.027823448E0,-2.121262789E0
1.054259620E-1,-9.576806799E-3,1.084812832E1,2.923320293E0
1.083348640E-1,-9.701305389E0,1.676420021E1,6.416460514E0
1.095850770E-1,-2.014481354E1,1.831085396E1,6.636727333E0
1.119311920E-1,-2.459563446E1,1.570596313E1,6.837840080E0
1.136585770E-1,-1.897404861E1,1.051054573E1,7.539340973E0
1.160882310E-1,-6.157886982E0,6.078877926E0,8.499416351E0
1.177660000E-1,8.085219383E0,4.077325344E0,8.279149055E0
1.201489620E-1,2.158372879E1,5.099649429E0,2.679111719E0
1.218961150E-1,2.185666656E1,4.034229755E0,-3.706224203E0
1.243070380E-1,1.640985870E1,2.193088770E0,-8.259995461E0
1.260134620E-1,8.508993149E0,4.165910721E0,-6.866570473E0
1.288805950E-1,-4.094084799E-1,1.039801788E1,-1.108515382E0
1.304082310E-1,-1.138442898E1,1.757344055E1,4.948814869E0
1.329514020E-1,-2.252943802E1,1.995327759E1,6.385335922E0
1.341102690E-1,-2.864901733E1,1.685757446E1,4.958391666E0
1.370205950E-1,-2.443522263E1,1.039562416E1,4.446032524E0
1.383151920E-1,-1.097262669E1,4.165910721E0,5.147533417E0
1.411247870E-1,4.881777287E0,1.532289028E0,7.570465565E0
1.423243460E-1,1.630451393E1,2.274491549E0,8.777143478E0
1.452288250E-1,1.998918915E1,3.428496838E0,6.229712963E0
1.464326540E-1,1.522712326E1,3.047818661E0,1.956062794E0
1.493327870E-1,5.798756599E0,2.913743496E0,1.096544385E0
1.511181150E-1,-5.487510204E0,8.334216118E0,7.896077156E0
1.533785180E-1,-8.317456245E0,1.157596493E1,1.110191345E1
1.545340380E-1,-1.341710663E1,1.634282112E1,1.440830612E1
1.574476330E-1,-1.715924263E1,1.600763321E1,1.131978607E1
1.586436920E-1,-1.692461205E1,1.194227791E1,6.042964935E0
1.615519410E-1,-1.083136845E1,6.971915245E0,2.947262287E0
1.627632690E-1,-5.315127969E-1,4.357447147E0,3.706224203E0
1.654701920E-1,9.749189377E0,5.092466831E0,5.784391403E0
1.669227690E-1,1.486559868E1,7.675810814E0,5.066130638E0
1.697609410E-1,1.280419064E1,8.664615631E0,5.913678408E-1
1.713116150E-1,2.456450939E0,6.284779549E0,-5.676652431E0
1.732461920E-1,-8.762778044E-1,6.325480938E0,-4.922478676E0
1.750155380E-1,-6.813898087E0,9.947908401E0,1.455674648E0
1.774961540E-1,-1.680969048E1,1.700840950E1,1.205719948E1
1.791469620E-1,-2.304898071E1,1.585200977E1,1.204762268E1
1.815810770E-1,-2.460281754E1,1.056321812E1,8.619126320E0
1.832652690E-1,-1.868435097E1,6.380547523E0,8.046912193E0
1.856103850E-1,-6.684611320E0,5.755661011E0,1.115458584E1
1.873798850E-1,5.700594425E0,6.634333134E0,1.423113537E1
1.902510940E-1,1.314895535E1,5.485116005E0,1.304121685E1
1.915121920E-1,1.418085670E1,1.776497602E0,7.951143742E0
1.939051920E-1,1.193988419E1,-6.967126727E-1,4.355052948E0
1.956029230E-1,9.387664795E0,2.161964178E0,6.095637321E0
1.980017310E-1,5.928043365E0,8.662221909E0,9.995792389E0
1.997006540E-1,-1.070208192E0,1.380017853E1,1.067335129E1
2.020685000E-1,-8.825027466E0,1.414015484E1,5.679046631E0
2.037949620E-1,-1.283531570E1,1.322078133E1,2.801215947E-1
2.062181540E-1,-1.066137981E1,1.433169174E1,-5.051765442E-1
2.079008460E-1,-3.876212597E0,1.577300072E1,9.816227108E-2
2.107976330E-1,4.654327869E0,1.412100124E1,-2.578555346E0
2.124101920E-1,1.620874596E1,6.165069580E0,-1.248576164E1
2.148774790E-1,1.922543907E1,4.405331135E0,-1.497094345E1
2.160402310E-1,2.274731064E1,4.534617901E0,-1.718318558E1
2.189467100E-1,1.933078384E1,7.939172745E0,-1.498770237E1
2.201365000E-1,7.809885979E0,1.267729759E1,-8.803479195E0
2.230509790E-1,-1.549287891E1,1.700122643E1,9.457096457E-1
2.242463080E-1,-2.698744202E1,1.686954498E1,7.596801758E0
2.271546710E-1,-2.931939316E1,1.367089176E1,1.248097324E1
2.283821540E-1,-2.023339844E1,8.848969460E0,1.460463047E1
2.312576710E-1,-3.213018656E0,5.281609058E0,1.544978333E1
2.329584610E-1,1.221282291E1,3.078943491E0,1.537795734E1
2.352956330E-1,1.950795555E1,1.271321058E0,1.350569153E1
2.364618850E-1,1.948401260E1,-7.996633649E-1,1.037886429E1
2.393637860E-1,1.628536034E1,-1.340752959E0,8.592789650E0
2.405488460E-1,1.088404083E1,2.932897091E0,1.158554173E1
2.434672860E-1,2.051830769E0,1.052491093E1,1.691503525E1
2.446784230E-1,-8.652645111E0,1.618480301E1,1.894292450E1
2.473613080E-1,-1.615846634E1,1.656787491E1,1.497573185E1
2.488036920E-1,-1.684320831E1,1.387200451E1,7.855375767E0
2.516741330E-1,-1.199255657E1,1.426704788E1,4.046200752E0
2.532761150E-1,-4.520252705E0,1.780807304E1,3.189076662E0
2.551403080E-1,4.659116745E0,1.746570206E1,-1.692700624E0
2.569362690E-1,1.488714600E1,1.129344940E1,-1.073799419E1
2.594049230E-1,2.472492027E1,4.350264549E0,-1.875138855E1
2.610456920E-1,3.034650612E1,1.580173135E0,-2.251267815E1
2.634496540E-1,2.675759888E1,6.478709698E0,-1.983596039E1
2.651563850E-1,1.353442192E1,1.539232254E1,-1.271321106E1
2.675630380E-1,-5.137956619E0,2.095165825E1,-7.872135162E0
2.692747310E-1,-2.237620926E1,1.995327759E1,-5.798756599E0
2.721515940E-1,-3.239594269E1,1.566765594E1,-3.801992416E0
2.734612310E-1,-2.589568520E1,1.158075333E1,1.424550056E0
2.756703850E-1,-1.896447182E1,1.158075333E1,3.481169224E0
2.773579230E-1,-4.050989151E0,1.077869606E1,6.634333134E0
2.797588080E-1,4.975151062E0,5.992686749E0,7.347805023E0
2.814651150E-1,7.273584843E0,-4.584896088E0,7.735665798E0
2.838518080E-1,5.887341976E0,-4.577713490E0,1.385763931E1
2.855780000E-1,1.922544003E0,9.935936928E-1,2.359485817E1
2.880093850E-1,-5.487510204E0,5.463568211E0,3.132094574E1
2.897018460E-1,-1.318008041E1,4.661510944E0,3.209666824E1
2.925679400E-1,-1.605072784E1,1.295263171E0,2.738727379E1
2.940840380E-1,-1.353202820E1,1.800439715E0,2.410482216E1
2.966350170E-1,-9.018958092E0,6.124367714E0,2.288377953E1
2.977858460E-1,-4.735731125E0,9.406818390E0,1.943373489E1
3.007044400E-1,9.313444495E-1,8.173804283E0,1.092474270E1
3.019050000E-1,8.633491516E0,4.062960148E0,-8.379706144E-1
3.048088630E-1,1.610818863E1,2.082955360E0,-9.502586365E0
3.060016920E-1,2.031001282E1,6.234501362E0,-1.236844635E1
3.089129780E-1,1.782483101E1,1.505952835E1,-1.147301483E1
3.101284230E-1,7.323863029E0,2.141374016E1,-1.070447540E1
3.130169020E-1,-7.857769966E0,2.118150330E1,-1.323754120E1
3.147307310E-1,-2.219903755E1,1.450886250E1,-1.496376038E1
3.170514230E-1,-2.164837265E1,1.298854446E1,-1.380496693E1
3.182653080E-1,-1.333091545E1,1.360385418E1,-9.466673851E0
3.211271710E-1,-1.642422318E0,1.639309883E1,-4.369418144E0
3.223316920E-1,6.234501362E0,1.362061310E1,-4.089296341E0
3.252330940E-1,1.066616821E1,4.067748547E0,-8.683769226E0
3.264720770E-1,1.484644508E1,-2.085349798E0,-9.837775230E0
3.291207690E-1,1.684320831E1,2.348711967E0,-2.305616140E0
3.306235380E-1,1.207156467E1,1.245224285E1,8.676587105E0
3.334443630E-1,1.685518026E0,1.817677879E1,1.458787060E1
3.351654610E-1,-8.695740700E0,1.233732128E1,1.148738003E1
3.368955770E-1,-8.216899872E0,9.308655739E0,1.197819138E1
3.387178080E-1,-4.718971729E0,9.557653427E0,1.638591576E1
3.411803460E-1,2.513911724E-1,8.846575737E0,1.958935738E1
3.428123080E-1,6.289567947E0,3.761290789E0,1.535401535E1
3.452813080E-1,1.148259163E1,-2.616862535E0,6.703764915E0
3.469512310E-1,1.247857952E1,-2.355894566E0,2.252943754E0
3.494481150E-1,6.943184853E0,6.150704384E0,5.422866821E0
3.511574610E-1,-3.438073635E0,1.516247940E1,1.061828423E1
3.539255940E-1,-1.367568016E1,1.668040276E1,1.101572227E1
3.552707690E-1,-1.869871521E1,1.194467258E1,7.151480675E0
3.575408840E-1,-1.616804314E1,8.090007782E0,4.278438568E0
3.592603840E-1,-7.173028469E0,8.207323074E0,2.832340717E0
3.616820770E-1,2.786850691E0,9.967061996E0,1.963245422E-1
3.633386920E-1,7.721300602E0,8.580819130E0,-4.539406300E0
3.657466920E-1,8.528146744E0,4.290409565E0,-1.010353088E1
3.675790000E-1,7.156269073E0,3.739742994E0,-1.111867237E1
3.699191920E-1,3.794809580E0,8.094796181E0,-7.386112213E0
3.716024230E-1,-2.841917515E0,1.420719242E1,-1.982398987E0
3.744673630E-1,-1.041717148E1,1.727895355E1,2.013523579E0
3.760033460E-1,-1.378341961E1,1.532049656E1,4.211400986E0
3.785417090E-1,-1.226788998E1,1.517923832E1,5.963956356E0
3.796879610E-1,-7.376535416E0,1.500925064E1,9.493009567E0
3.826112090E-1,-9.816226959E-1,1.211944866E1,1.000058079E1
3.838170770E-1,7.678205013E0,6.052541733E0,7.563282967E0
3.867155550E-1,2.363555908E1,-1.754949808E0,2.274491549E0
3.879666540E-1,2.936967278E1,-3.112462163E-1,1.070208192E0
3.908198240E-1,2.458366394E1,5.578489780E0,2.398990154E0
3.920368080E-1,9.715670586E0,1.173877048E1,4.869806290E0
3.949240170E-1,-7.302315235E0,1.521515179E1,6.854599476E0
3.967163840E-1,-1.830127716E1,1.579694271E1,8.152256966E0
3.989705940E-1,-2.069069099E1,1.343147182E1,7.256825447E0
4.002770000E-1,-1.547133160E1,1.084573364E1,4.280832767E0
4.030403630E-1,-6.483498096E0,1.112585545E1,1.826775908E0
4.042776150E-1,1.450886250E0,1.026873112E1,-1.307234168E0
4.071451700E-1,6.768408298E0,5.133168221E0,-6.751648903E0
4.083386150E-1,9.466673851E0,2.130839527E-1,-1.076193619E1
4.110486920E-1,9.011775017E0,1.422155857E0,-8.796297073E0
4.124889610E-1,4.120420933E0,9.150638580E0,-1.596932530E0
4.153544400E-1,-4.429273129E0,1.599566174E1,4.520252705E0
4.170153460E-1,-1.203325748E1,1.664448929E1,5.729324818E0
4.188236920E-1,-1.492066479E1,1.415691471E1,6.086060524E0
4.206496150E-1,-1.333330917E1,1.244506073E1,8.899248123E0
4.230963840E-1,-8.894459724E0,1.067813969E1,1.198537350E1
4.247333070E-1,-1.048660398E0,7.060500622E0,1.245703125E1
4.271534610E-1,1.027112484E1,8.523358107E-1,8.178592682E0
4.288152310E-1,2.079603577E1,-4.062960148E0,1.956062794E0
4.312514610E-1,2.443282890E1,-2.233790159E0,1.651999205E-1
4.330327310E-1,1.748006630E1,6.241683960E0,4.548983097E0
4.358329400E-1,2.853888512E0,1.382890892E1,9.991003990E0
4.371801920E-1,-1.707065773E1,1.523191166E1,1.172201157E1
4.394476150E-1,-2.124375153E1,1.289277649E1,1.119768143E1
4.411738070E-1,-1.695812988E1,1.109233665E1,1.033816338E1
4.436061150E-1,-7.046135426E0,1.017296314E1,8.080430984E0
4.452811540E-1,3.653551817E0,8.123526573E0,3.569754839E0
4.476676150E-1,1.166694450E1,4.106055737E0,-2.901772499E0
4.493989610E-1,1.562695408E1,1.268926859E0,-8.113949776E0
4.518117690E-1,1.391988850E1,4.120420933E0,-7.079654217E0
4.535061540E-1,6.416460514E0,1.137006378E1,-4.141969085E-1
4.563871700E-1,-2.923320293E0,1.640506935E1,4.575319290E0
4.580161920E-1,-8.983044624E0,1.820072174E1,5.973533154E0
4.604687860E-1,-1.097980881E1,1.741781807E1,5.925649166E0
4.616242690E-1,-9.222464561E0,1.348653793E1,4.204218388E0
4.645387470E-1,-3.217807055E0,8.916007042E0,2.398990154E0
4.658046150E-1,6.684611320E0,4.979939461E0,4.525041282E-1
4.686445550E-1,1.696052551E1,1.098938584E0,-4.350264549E0
4.700319230E-1,2.250549507E1,-3.663128614E-1,-1.001255131E1
4.727499780E-1,1.941937065E1,3.849876404E0,-1.125514221E1
4.740051920E-1,8.463502884E0,1.144667816E1,-6.677428722E0
4.768545550E-1,-5.647922039E0,1.641943550E1,-5.434837937E-1
4.788424230E-1,-1.789186859E1,1.497812557E1,4.876988888E0
4.809034010E-1,-1.829888344E1,1.366849709E1,6.050147533E0
4.820820380E-1,-1.423352909E1,1.179623222E1,7.903259754E0
4.849734390E-1,-7.062894821E0,9.732429504E0,7.139509678E0
4.862392690E-1,-3.471592367E-1,5.961562157E0,4.381389141E0
4.890783620E-1,8.398859978E0,2.585737705E-1,2.226607561E0
4.902720380E-1,1.095347309E1,-6.991068721E-1,3.773261786E0
4.929739610E-1,6.500257492E0,2.154781580E0,9.059659004E0
4.944096920E-1,-3.251325846E0,6.042964935E0,1.445379543E1
4.972874390E-1,-1.190636539E1,9.449913979E0,1.711614799E1
4.989201920E-1,-1.638352203E1,1.320881081E1,1.907699966E1
5.007952310E-1,-1.743697166E1,1.452801609E1,1.955583954E1
5.026675000E-1,-1.407072353E1,1.127429581E1,1.629733086E1
5.050383840E-1,-3.660734415E0,5.662287235E0,9.653421402E0
5.066683840E-1,1.189200020E1,2.729389906E0,2.722207308E0
5.090892310E-1,2.517503166E1,3.196259260E0,-4.288015366E0
5.107755380E-1,2.934572983E1,5.556941986E0,-1.129105568E1
5.131553460E-1,2.405454445E1,9.871294022E0,-1.390552330E1
5.149054230E-1,1.401086807E1,1.381693840E1,-1.209550667E1
5.177805550E-1,3.265691042E0,1.528937244E1,-1.005325317E1
5.195315770E-1,-5.566518784E0,1.576581860E1,-8.362946510E0
5.213170770E-1,-1.104924107E1,1.718557930E1,-6.643909931E0
5.230303070E-1,-1.231577396E1,1.824621201E1,-6.210559368E0
5.253676150E-1,-1.068532181E1,1.564371395E1,-7.637503624E0
5.269805000E-1,-7.278373241E0,9.931148529E0,-8.690952301E0
5.293693070E-1,-1.910573006E0,5.616796970E0,-6.789956093E0
5.310987690E-1,3.684676409E0,5.157110691E0,-1.805228114E0
5.335639610E-1,6.088454723E0,6.732495308E0,5.044582844E0
5.352828840E-1,3.976768970E0,7.244854450E0,1.121683502E1
5.380967080E-1,1.244984865E-1,7.208941460E0,1.618001556E1
5.396340770E-1,-3.347094059E0,1.011789608E1,2.381033516E1
5.421659010E-1,-3.861847401E0,1.093671322E1,2.563711166E1
5.433163840E-1,-3.663128614E0,9.418789864E0,2.587174416E1
5.462350930E-1,-4.788403511E-1,3.495534420E0,1.966597366E1
5.474564610E-1,9.174580574E0,-2.705447912E0,8.166622162E0
5.503399390E-1,1.161666679E1,7.613561153E-1,4.898536682E0
5.516340000E-1,5.214571476E0,7.654263020E0,5.240907669E0
5.544445930E-1,-6.811503887E0,1.187284660E1,4.855441093E0
5.556705770E-1,-1.775300598E1,1.302685165E1,3.967192173E0
5.585495160E-1,-2.294124031E1,1.400368595E1,5.204994678E0
5.602444610E-1,-2.157415199E1,1.611537170E1,7.541735172E0
5.625874780E-1,-1.536598682E1,1.691264153E1,7.539340973E0
5.637611540E-1,-7.498639584E0,1.230619717E1,3.466804028E0
5.666574010E-1,1.142034173E0,4.996698856E0,-1.369483352E0
5.680919230E-1,9.478644371E0,1.168370485E0,-2.916137695E0
5.707622850E-1,1.374990082E1,3.165134668E0,-2.489969730E-1
5.719712300E-1,1.111627865E1,8.104372978E0,5.200206280E0
5.746561920E-1,3.778050184E0,1.035013390E1,8.458714485E0
5.760983460E-1,-3.287238836E0,1.119768143E1,9.476250648E0
5.789713620E-1,-8.269572258E0,1.390073490E1,1.211466026E1
5.806766150E-1,-9.493009567E0,1.668758583E1,1.537316895E1
5.825769610E-1,-7.235277653E0,1.548569679E1,1.443464184E1
5.842922300E-1,1.946485996E0,8.825027466E0,7.745242596E0
5.867032300E-1,1.474828243E1,2.576161146E0,-7.134721279E-1
5.883623840E-1,2.498588943E1,2.355894566E0,-6.047753334E0
5.907749230E-1,2.660915756E1,7.173028469E0,-7.876923561E0
5.924335380E-1,1.957499313E1,1.189918232E1,-7.283161640E0
5.949107300E-1,9.366117477E0,1.312022495E1,-6.751648903E0
5.965618840E-1,2.466027737E-1,1.336682796E1,-5.224148273E0
5.994557850E-1,-7.527369976E0,1.543541813E1,-8.164227605E-1
6.007781150E-1,-7.893682957E0,1.573708820E1,-2.154781520E-1
6.030675380E-1,-4.807557106E0,1.230619717E1,-2.806004286E0
6.048063070E-1,-6.464344263E-2,7.453149796E0,-6.026205540E0
6.072233840E-1,3.632004023E0,5.274426460E0,-6.648698330E0
6.088989230E-1,3.177105665E0,6.785167694E0,-4.031835556E0
6.112799610E-1,-1.503558636E0,9.162610054E0,9.313444495E-1
6.129808460E-1,-6.507440090E0,9.459490776E0,6.136339188E0
6.154393460E-1,-9.210494041E0,9.138668060E0,1.171482849E1
6.171947300E-1,-1.036689377E1,9.323021889E0,1.808340454E1
6.200008230E-1,-9.782708168E0,8.671798706E0,2.252704430E1
6.215720000E-1,-5.188235283E0,4.994304657E0,2.193328094E1
6.240749000E-1,4.362235546E0,-8.355764151E-1,1.551203251E1
6.253354610E-1,1.406114674E1,-3.124433279E0,8.142680168E0
6.281442850E-1,1.672110558E1,7.398083210E-1,4.091690540E0
6.293742300E-1,1.027351952E1,7.283161640E0,2.952050686E0
6.322484770E-1,2.537853718E-1,1.098459721E1,1.924938202E0
6.335496150E-1,-7.788338184E0,1.175792408E1,1.146822572E0
6.363529770E-1,-1.315374374E1,1.199734497E1,2.571372509E0
6.376419230E-1,-1.564131927E1,1.268208599E1,4.333505154E0
6.404570160E-1,-1.366370869E1,1.389594650E1,4.771644115E0
6.422951530E-1,-3.885789394E0,1.281137371E1,5.889736414E-1
6.445036700E-1,-1.048660398E0,1.134612179E1,-1.247379065E0
6.457855770E-1,2.310404539E0,7.491456985E0,-4.247313976E0
6.485729770E-1,3.727771997E0,5.638344765E0,-4.946420670E0
6.499132690E-1,4.690241337E0,8.848969460E0,-7.302315235E-1
6.526772850E-1,3.521870613E0,1.605551720E1,8.729259491E0
6.540079610E-1,-9.097966552E-1,1.409227085E1,9.176975250E0
6.565748460E-1,-4.446032524E0,9.002198219E0,7.486668587E0
6.580671530E-1,-1.211466074E0,6.299144745E0,7.673416615E0
6.608866310E-1,8.123526573E0,6.605602264E0,7.129932880E0
6.625827690E-1,1.643858910E1,8.532935143E0,3.201047659E0
6.644041920E-1,1.818635559E1,1.062546730E1,-3.684676409E0
6.661903840E-1,1.383130360E1,1.213620853E1,-1.066137981E1
6.686720770E-1,8.008605003E0,1.288798809E1,-1.346020222E1
6.706099610E-1,4.072536945E0,1.283052731E1,-1.174834728E1
6.726680000E-1,1.546654344E0,1.352245140E1,-6.763619900E0
6.743658840E-1,-1.027112484E0,1.420001030E1,-2.149993181E0
6.767400770E-1,-4.671087742E0,1.307473564E1,-1.168370485E0
6.785192690E-1,-8.360552788E0,1.110670185E1,-1.340752959E0
6.813528230E-1,-1.016099167E1,9.425971985E0,-9.337386489E-2
6.827436150E-1,-9.931148529E0,7.893682957E0,2.173935175E0
6.851193460E-1,-9.500192642E0,7.323863029E0,6.002263546E0
6.868111150E-1,-9.325415611E0,7.970297337E0,1.134372807E1
6.891077300E-1,-7.900865555E0,8.520963669E0,1.708741760E1
6.908105380E-1,-4.101267338E0,7.841010571E0,2.073139191E1
6.931965000E-1,-1.197100878E-1,4.932055473E0,2.160527611E1
6.949005000E-1,3.224989653E0,8.451532125E-1,2.100672531E1
6.973261920E-1,8.422801971E0,-6.871358752E-1,2.063323021E1
6.990660380E-1,1.924938202E1,1.757344007E0,1.584722137E1
7.019012080E-1,2.028128242E1,3.512293816E0,6.600813866E0
7.036212300E-1,1.265096188E1,6.971915245E0,-1.249773264E0
7.059924000E-1,1.532289028E0,1.180820274E1,-3.821146011E0
7.071676150E-1,-6.066906929E0,1.511459541E1,-3.974374771E0
7.100618230E-1,-8.571242332E0,1.567723274E1,-4.264073372E0
7.112599230E-1,-8.868123055E0,1.436999893E1,-5.872976780E0
7.141660150E-1,-8.846575737E0,1.402523327E1,-7.623138428E0
7.154197690E-1,-8.097189903E0,1.373792934E1,-8.892065048E0
7.182701310E-1,-5.820304394E0,1.181059742E1,-1.007958889E1
7.196268840E-1,-3.466804028E0,1.016817474E1,-8.520963669E0
7.223742850E-1,-2.973598480E0,9.004592896E0,-5.408501625E0
7.240938840E-1,-4.230554581E0,9.318233490E0,-1.405396342E0
7.264150540E-1,-4.491522312E0,1.217451572E1,4.424484730E0
7.275775000E-1,-2.973598480E0,1.466448498E1,1.050336266E1
7.304584380E-1,-7.493851185E-1,1.279222012E1,1.349850941E1
7.316184610E-1,1.458068848E0,6.708553314E0,1.352963352E1
7.345279770E-1,6.205770969E0,2.128445387E0,1.394143677E1
7.357265000E-1,1.480334949E1,1.453280449E0,1.391031170E1
7.384365770E-1,2.233790207E1,3.596091032E0,1.102290440E1
7.398516150E-1,2.212960625E1,6.136339188E0,5.748478413E0
7.427354380E-1,1.441309452E1,7.467514992E0,2.513911724E-1
7.443276150E-1,2.968810081E0,1.005325317E1,-2.636016130E0
7.462453840E-1,7.086837292E-1,1.166215611E1,-2.104503393E0
7.480948460E-1,-3.031059265E0,1.443703651E1,-1.125274777E0
7.504583070E-1,-6.466738701E0,1.508347034E1,-2.626439333E0
7.522319230E-1,-8.518569946E0,1.407311726E1,-5.437232018E0
7.545005000E-1,-7.802703381E0,1.140597725E1,-7.699752808E0
7.561799610E-1,-3.983951569E0,8.839392662E0,-7.058106422E0
7.585578840E-1,-3.227383852E0,9.914389610E0,-3.821146011E0
7.603026920E-1,-5.243301868E0,1.021127033E1,-2.126051188E0
7.632093230E-1,-8.748413086E0,9.627084732E0,-4.022258818E-1
7.645245760E-1,-1.118810463E1,9.847352028E0,4.520252705E0
7.667007690E-1,-1.119289303E1,1.035013390E1,1.191594219E1
7.683966530E-1,-8.341399193E0,8.786720276E0,1.881603050E1
7.708278070E-1,-2.221819162E0,4.180276394E0,2.175611115E1
7.725209610E-1,7.101202011E0,-1.264138460E0,1.947443581E1
7.748890760E-1,1.735556793E1,-2.401384354E0,1.466448498E1
7.766131150E-1,2.345359993E1,1.314416766E0,9.679757118E0
7.790358460E-1,2.157893944E1,5.963956356E0,4.357447147E0
7.807437690E-1,1.298136139E1,9.016563416E0,6.320692301E-1
7.836228230E-1,2.576161146E0,1.161906052E1,4.261679053E-1
7.851500380E-1,-6.579266071E0,1.466927338E1,2.516305923E0
7.876895920E-1,-1.367807388E1,1.646253014E1,3.450044632E0
7.888413070E-1,-1.775061226E1,1.579215431E1,1.443703651E0
7.917582460E-1,-1.723585892E1,1.427423096E1,-9.385270476E-1
7.929630000E-1,-1.268926907E1,1.359188271E1,-9.313444495E-1
7.958616300E-1,-7.259219646E0,1.151850414E1,-9.074024558E-1
7.970821530E-1,-4.740519524E0,7.398083210E0,-2.394201756E0
7.999657070E-1,-4.793191910E0,5.904101372E0,-9.983820915E-1
8.012879230E-1,-4.141968727E0,9.366117477E0,5.188235283E0
8.040702460E-1,-2.707842112E0,1.248336792E1,1.095347309E1
8.057739230E-1,-3.457227230E0,8.281543732E0,1.246421432E1
8.081084380E-1,-2.865859509E0,5.784391403E0,1.200452709E1
8.092700380E-1,3.100491285E0,3.028665066E0,1.137245846E1
8.121765530E-1,1.346020222E1,3.701435804E0,9.722852707E0
8.133683840E-1,2.007777596E1,5.549759388E0,4.031835556E0
8.162799000E-1,1.401326275E1,8.619126320E0,-5.724536419E0
8.175491150E-1,6.078877926E0,1.145625496E1,-7.273584843E0
8.202129230E-1,3.543418646E-1,1.397974396E1,-5.114014626E0
8.216210760E-1,-3.974374771E0,1.467645645E1,-2.329558372E0
8.244891690E-1,-8.145073891E0,1.342428875E1,-1.168370485E0
8.261696530E-1,-9.406818390E0,1.171004009E1,-1.362300754E0
8.279641150E-1,-6.047753334E0,1.015620327E1,-2.042253971E0
8.297665000E-1,-1.654393315E0,9.576807022E0,-9.481038451E-1
8.322612300E-1,-1.082179189E0,9.095572472E0,1.953668594E0
8.340446530E-1,-4.163516521E0,6.770802498E0,3.632004023E0
8.364174230E-1,-7.716512203E0,5.013458252E0,5.975927353E0
8.379908460E-1,-9.193734169E0,6.093243122E0,1.175313568E1
8.403654230E-1,-8.906430244E0,8.815450668E0,1.924219894E1
8.420896920E-1,-8.554482460E0,9.433155060E0,2.472731590E1
8.449669760E-1,-6.177040577E0,6.028599739E0,2.509123421E1
8.462669230E-1,1.168370485E0,1.570596337E0,2.197877121E1
8.485759610E-1,1.292150688E1,-8.906430602E-1,1.755189323E1
8.503774990E-1,2.293645287E1,-8.068459630E-1,1.148977375E1
8.527495760E-1,2.526840401E1,1.891419291E0,5.446808815E0
8.543915380E-1,1.979047203E1,5.951985359E0,1.058237195E0
8.567924610E-1,1.067335129E1,9.088389397E0,-2.511517525E0
8.584873070E-1,9.002198577E-1,1.191354752E1,-4.441244125E0
8.609311150E-1,-8.501810074E0,1.517205620E1,-4.223371983E0
8.625361530E-1,-1.547133160E1,1.677617073E1,-4.884171486E0
8.654398990E-1,-1.405156994E1,1.442267132E1,-1.066616821E1
8.670289230E-1,-8.061277390E0,1.249294472E1,-1.427901936E1
8.695118990E-1,-3.782838583E0,1.153526402E1,-1.481532001E1
8.707904230E-1,-2.765302896E0,1.246900272E1,-1.158793640E1
8.735813610E-1,-3.497928619E0,1.417846203E1,-6.253654957E0
8.747884990E-1,-4.127603531E0,1.482968521E1,-8.403648138E-1
8.776851690E-1,-3.380612850E0,1.334528065E1,3.813963413E0
8.788736530E-1,2.059013397E-1,9.112331390E0,7.029376030E0
8.817890920E-1,8.228871346E0,4.297592163E0,9.318233490E0
8.830439990E-1,1.965639687E1,2.157175779E0,1.088404083E1
8.858929760E-1,2.795709419E1,3.634398222E0,1.102051067E1
8.876930760E-1,2.548867035E1,5.851428986E0,8.116343498E0
8.899406300E-1,1.402283955E1,7.745242596E0,3.667917013E0
8.911116530E-1,2.262520552E0,1.053927612E1,1.690306425E0
8.940094760E-1,-4.230554581E0,1.356794071E1,3.320757866E0
8.952180380E-1,-6.890512466E0,1.417127991E1,5.664681435E0
8.981130920E-1,-8.063671112E0,1.116895103E1,4.800374508E0
8.993444230E-1,-7.307103634E0,8.580819130E0,2.111685991E0
9.020233460E-1,-3.998316765E0,8.789113998E0,-2.274491638E-1
9.034483840E-1,-1.110909581E0,9.856928825E0,-2.458845139E0
9.063206300E-1,-1.917755604E0,1.079784966E1,-3.488351822E0
9.079281920E-1,-6.351817131E0,1.276588345E1,-8.140285611E-1
9.097573460E-1,-6.809109688E0,1.368765068E1,1.053448796E0
9.115826920E-1,-5.928043365E0,1.454956341E1,4.699818134E0
9.140309610E-1,-4.809951305E0,1.194227791E1,6.500257492E0
9.157039230E-1,-3.617638826E0,6.957550049E0,7.706935406E0
9.182649990E-1,-1.867477298E-1,3.045424461E0,9.868899345E0
9.198675380E-1,4.910507679E0,1.589749932E0,1.210029507E1
9.221637300E-1,6.761225700E0,3.624821424E0,1.241393566E1
9.239244610E-1,1.084573388E0,6.268020153E0,1.097980881E1
9.267920150E-1,-5.451597214E0,8.216899872E0,9.509769440E0
9.280543070E-1,-7.412448406E0,9.035717010E0,8.813055992E0
9.304023070E-1,-4.462791920E0,9.275136948E0,9.193734169E0
9.322666150E-1,-8.140286058E-2,8.892065048E0,9.100360870E0
9.345590380E-1,2.849100113E0,7.366958618E0,6.466738701E0
9.362379230E-1,4.699818134E0,5.025429249E0,1.685518026E0
9.386112300E-1,4.896142483E0,4.129997730E0,-1.968033791E0
9.403424990E-1,1.395819545E0,6.251260757E0,-1.407790542E0
9.427549230E-1,-5.480327606E0,1.013465595E1,1.766920805E0
9.444701150E-1,-1.296460247E1,1.322078133E1,4.187458992E0
9.473407840E-1,-1.710417747E1,1.434126854E1,5.094861031E0
9.489801150E-1,-1.220803452E1,1.181299114E1,4.548983097E0
9.514200530E-1,-8.164227486E0,1.009156036E1,4.359841347E0
9.527354610E-1,2.305616140E0,5.755661011E0,3.782838583E0
9.554883610E-1,1.425507736E1,2.571372509E0,2.892195702E0
9.566854990E-1,2.450944328E1,2.916137695E0,1.261744261E0
9.595920910E-1,2.859873962E1,6.088454723E0,-2.509123325E0
9.607824220E-1,2.453099060E1,9.289502144E0,-7.908048153E0
9.636957840E-1,1.625423622E1,1.265335560E1,-1.088404083E1
9.649144220E-1,9.124302864E0,1.595974827E1,-9.873687744E0
9.678003990E-1,4.730942726E0,1.755668068E1,-7.639897823E0
9.696752300E-1,-1.994369984E0,1.543781281E1,-5.762843609E0
9.718377690E-1,-6.847416878E0,1.151132202E1,-6.160281181E0
9.729886530E-1,-8.511386871E0,9.421183586E0,-4.659116745E0
9.759072070E-1,-7.635109425E0,1.219366932E1,1.206677675E0
9.771112690E-1,-7.659051418E0,1.468842697E1,6.509834290E0
9.800028070E-1,-1.001494598E1,1.261265469E1,7.311892033E0
9.812335760E-1,-1.168849277E1,8.655038834E0,7.513004780E0
9.839325760E-1,-9.995792389E0,6.706159115E0,1.117613316E1
9.854285760E-1,-6.718130112E0,8.307879448E0,1.951274300E1
9.882178220E-1,-3.660734415E0,7.603984833E0,2.629551697E1
9.897666530E-1,-4.357447028E-1,1.412579060E0,2.446874046E1
9.916929220E-1,4.185064793E0,-3.035847664E0,1.941697502E1
9.935003460E-1,8.889671326E0,1.189918280E0,1.721670532E1
9.959539610E-1,9.605537415E0,9.787496567E0,1.659181786E1
9.975834610E-1,5.906495571E0,1.263899040E1,1.168609810E1
1.000026461E0,3.086126089E0,8.147468567E0,2.801215887E0
1.001786730E0,5.164293289E0,5.923254967E0,-2.269703150E0
1.004245961E0,9.184157372E0,1.116416264E1,-1.455674648E0
1.005885422E0,9.873687744E0,1.696770668E1,-1.991975784E0
1.008700207E0,7.173028469E0,1.662054825E1,-7.915230751E0
1.010007230E0,4.996698856E0,1.289038181E1,-1.517444992E1
1.012207961E0,2.497152328E0,1.149695683E1,-1.849760246E1
1.013992807E0,-2.329558372E0,1.461899567E1,-1.461660099E1
1.016374730E0,-8.401253700E0,1.807382774E1,-8.216899872E0
1.018046499E0,-1.342189503E1,1.782243729E1,-3.615244627E0
1.020511499E0,-1.562695408E1,1.506671143E1,4.644751251E-1
1.022250846E0,-1.418325043E1,1.136527538E1,4.398148537E0
1.024537922E0,-8.690952301E0,8.245630264E0,8.360552788E0
1.026264692E0,7.929595947E0,3.541024208E0,1.123120022E1
1.029113437E0,1.957020378E1,1.812410712E0,1.099178028E1
1.030647115E0,2.371935654E1,1.881842494E0,1.044590187E1
1.033179899E0,1.937148666E1,2.748543501E0,8.846575737E0
1.034490461E0,1.173158836E1,4.908113480E0,7.702147007E0
1.037248091E0,4.999093056E0,8.233659744E0,7.656657219E0
1.038607269E0,-1.261744261E0,1.114979744E1,7.694964409E0
1.041351706E0,-7.278373241E0,1.258392429E1,6.354211330E0
1.042542922E0,-1.094389629E1,1.182256794E1,2.940079689E0
1.045454899E0,-1.068771648E1,9.914389610E0,-1.216254473E0
1.046678730E0,-8.927978516E0,9.538499832E0,-2.535459518E0
1.049557514E0,-8.489839554E0,1.007958889E1,-1.505952835E0
1.051374307E0,-9.531316757E0,1.010592556E1,-4.261679053E-1
1.053595245E0,-9.722852707E0,9.646238327E0,4.453215301E-1
1.054744730E0,-7.307103634E0,1.039801788E1,2.767697096E0
1.057663783E0,-4.218583584E0,1.144428444E1,6.639121532E0
1.058845422E0,-2.116474390E0,8.767566681E0,8.693346024E0
1.061758346E0,9.840168953E-1,4.422090530E0,9.165003777E0
1.062977922E0,8.006210327E0,2.760514498E0,9.569623947E0
1.065676461E0,1.605072784E1,3.981557369E0,8.010998726E0
1.067109884E0,1.853351593E1,5.363011837E0,3.653551817E0
1.069972745E0,1.443703651E1,6.028599739E0,-1.359906554E0
1.071747692E0,6.936002254E0,9.021351814E0,-4.218583584E0
1.073441653E0,4.989516258E0,1.075954247E1,-3.840299606E0
1.075239461E0,-4.141969085E-1,1.383369732E1,-2.372653961E0
1.077707269E0,-7.910442352E0,1.449689102E1,-1.757344007E0
1.079448884E0,-1.226310158E1,1.291671848E1,-2.837129116E0
1.081779499E0,-7.812280178E0,1.225352383E1,-2.655169725E0
1.083522038E0,-3.260902643E0,1.115937424E1,-1.774103403E0
1.086063038E0,-8.379706144E-1,8.839392662E0,-1.395819545E0
1.087709922E0,-4.309562966E-2,8.556877136E0,6.105214357E-1
1.090448668E0,-4.668693244E-1,1.163821411E1,5.403713226E0
1.091728345E0,-3.050212860E0,1.453280449E1,1.113303757E1
1.094043307E0,-6.567295074E0,1.132457447E1,1.390073490E1
1.095784461E0,-5.169081688E0,3.016694069E0,1.312980175E1
1.098214576E0,3.691859007E0,-1.326387763E0,1.359906578E1
1.099934922E0,1.442985344E1,2.571372509E0,1.626141739E1
1.102624307E0,1.759259415E1,8.374917984E0,1.522712326E1
1.103988999E0,1.113303757E1,9.624691010E0,7.350199223E0
1.106495192E0,2.765302896E0,8.403648376E0,-9.193734527E-1
1.108121230E0,-1.436521053E0,9.109937668E0,-2.573766708E0
1.110989668E0,-2.221819162E0,1.254561710E1,1.740584612E0
1.112512538E0,-3.090914488E0,1.472912884E1,5.130774021E0
1.115062360E0,-4.070142746E0,1.282095051E1,2.619256735E0
1.116282115E0,-2.947262287E0,1.131260300E1,-1.431732655E0
1.119131398E0,-7.015010715E-1,1.161666679E1,-3.210624456E0
1.120444769E0,-4.740519226E-1,1.205480576E1,-3.059789658E0
1.123235475E0,-3.191470861E0,1.254322243E1,-7.996633649E-1
1.124435807E0,-6.517016888E0,1.333330917E1,3.083731890E0
1.127339706E0,-8.204929352E0,1.437239265E1,7.991845131E0
1.128557384E0,-7.929595947E0,1.227028370E1,1.067335129E1
1.131442783E0,-3.339911461E0,2.444479942E0,1.006761837E1
1.133314192E0,5.542576790E0,-1.201889277E0,1.104445267E1
1.135488206E0,1.638831139E1,1.276109457E0,1.275391293E1
1.136652653E0,2.003228569E1,6.454767704E0,1.234929276E1
1.139557898E0,1.404678154E1,8.714894295E0,7.237671852E0
1.140767538E0,7.156269073E0,8.219294548E0,-2.537853718E-1
1.143662245E0,6.241683960E0,8.439560890E0,-4.115632534E0
1.144865230E0,9.251194954E0,1.012029076E1,-3.205836058E0
1.147564845E0,1.097502041E1,1.114022064E1,-1.936909199E0
1.148997653E0,9.651026726E0,9.835380554E0,-4.599261284E0
1.151870475E0,7.582436562E0,8.846575737E0,-9.797073364E0
1.153467538E0,4.417302132E0,1.026873112E1,-1.373553562E1
1.155309692E0,-2.557007313E0,1.302685165E1,-1.403959846E1
1.157124845E0,-1.263420200E1,1.531570816E1,-1.093910789E1
1.159591076E0,-2.066196060E1,1.595256615E1,-5.698200226E0
1.161231076E0,-2.354218483E1,1.594777775E1,9.840168953E-1
1.163650153E0,-2.274491692E1,1.355118179E1,6.600813866E0
1.165370269E0,-1.927571869E1,7.740454197E0,9.763554573E0
1.167784076E0,-1.124556541E1,1.850717902E0,1.241633034E1
1.169570653E0,1.640028119E0,-4.022258818E-1,1.649365616E1
1.172338514E0,1.428141308E1,7.757213712E-1,2.078645897E1
1.173630153E0,1.875378227E1,9.576807022E-1,2.153823853E1
1.175936538E0,1.477222443E1,-3.591302633E-1,1.815283775E1
1.177681999E0,8.746018410E0,1.726219416E0,1.646253014E1
1.180090076E0,3.979163170E0,7.359776020E0,1.811931801E1
1.181873730E0,-2.736572504E0,1.066137981E1,1.748006630E1
1.184250384E0,-5.458779812E0,7.364564419E0,1.168370438E1
1.185946307E0,-3.845088005E0,5.904101372E0,5.542576790E0
1.188311268E0,-1.034295082E0,9.279925346E0,1.817199111E0
1.190012307E0,-1.917755604E0,1.347935581E1,-1.027112484E0
1.192890475E0,-6.349422932E0,1.542823601E1,-4.271255970E0
1.194728730E0,-1.077390766E1,1.702516747E1,-5.197812080E0
1.196971898E0,-1.219366932E1,1.900996208E1,-2.580949545E0
1.198219153E0,-1.004367638E1,1.798284912E1,-3.184288144E-1
1.201041821E0,-4.515464306E0,1.249055004E1,-2.896983922E-1
1.202309961E0,5.195417881E0,5.753266811E0,-1.450886250E0
1.205146244E0,1.705150414E1,2.243366957E0,-2.475604534E0
1.206369499E0,2.410961151E1,3.957615376E0,-2.291250944E0
1.209251052E0,2.051112556E1,8.609549522E0,-9.672574997E-1
1.210559345E0,9.734824181E0,1.148498535E1,-5.913678408E-1
1.213355321E0,6.607996821E-1,1.251449203E1,-1.283292055E0
1.215116807E0,-3.871424198E0,1.252646351E1,-3.351882473E-2
1.217395167E0,-3.447650433E0,1.173398209E1,3.782838583E-1
1.218657845E0,-5.889736414E-1,9.184157372E0,6.512228847E-1
1.221464937E0,3.938461781E0,6.658275127E0,6.224924326E-1
1.222754884E0,7.462726593E0,6.229712963E0,1.151610970E0
1.225569244E0,6.057330132E0,7.891288757E0,2.389413357E0
1.226777999E0,-6.703764945E-2,9.933543205E0,3.289633036E0
1.229472922E0,-6.416460514E0,1.158554173E1,4.170699596E0
1.230911384E0,-9.402029991E0,1.309628296E1,7.105990410E0
1.233777898E0,-8.942343712E0,1.224873543E1,1.067574501E1
1.235431922E0,-4.390965939E0,4.122815132E0,1.253364563E1
1.237257768E0,2.085349798E0,-9.911994934E-1,1.207874775E1
1.239040999E0,9.928754807E0,7.924807668E-1,1.234210968E1
1.241507038E0,1.319683933E1,8.425195694E0,1.295263100E1
1.243145961E0,8.532935143E0,1.272996998E1,8.638279915E0
1.245579345E0,1.561019540E0,1.062307262E1,3.591302633E-1
1.247254461E0,-8.762778044E-1,8.109161377E0,-3.110068083E0
1.249638692E0,1.503558636E0,9.828198433E0,1.209071875E0
1.251421384E0,4.335899353E0,1.386482239E1,6.845022678E0
1.254251244E0,3.172317266E0,1.489911747E1,6.438008308E0
1.255583615E0,-2.849099934E-1,1.220563984E1,6.584054828E-1
1.257764422E0,-1.721431017E0,1.036210537E1,-3.811569214E0
1.259465961E0,-2.209848166E0,1.149695683E1,-1.867477298E0
1.261887499E0,-5.042188644E0,1.250970364E1,3.809175014E0
1.263539499E0,-9.263166428E0,9.825803757E0,7.196970463E0
1.266015499E0,-1.131978607E1,8.908824921E0,1.109951878E1
1.267687076E0,-1.036689377E1,1.067335129E1,1.646971321E1
1.270237076E0,-8.453926086E0,8.995016098E0,1.757344055E1
1.271803038E0,-3.842693806E0,3.596091032E0,1.459026527E1
1.274671744E0,6.641515732E0,-4.692635238E-1,1.001733971E1
1.276214153E0,2.216791344E1,3.311181068E0,6.344634533E0
1.278740244E0,2.253901482E1,5.556941986E0,5.382165432E0
1.279902768E0,1.559104156E1,7.771578789E0,1.738190413E0
1.282810936E0,5.327098846E0,8.382100105E0,-2.343923569E0
1.284082115E0,-1.441309452E0,9.694122314E0,-4.070142746E0
1.286916282E0,-4.050989151E0,1.201889229E1,-4.386177540E0
1.288181807E0,-4.575319290E0,1.454477501E1,-4.869806290E0
1.291021013E0,-1.663970232E0,1.510741234E1,-9.078812599E0
1.292250038E0,1.268926859E0,1.383369732E1,-1.152568722E1
1.295126398E0,2.365471363E0,1.146583176E1,-1.110191345E1
1.296840230E0,1.649604917E0,1.009156036E1,-6.811503887E0
1.299165744E0,3.830722570E-1,1.155681133E1,4.189853072E-1
1.300377615E0,-1.515529633E0,1.411142445E1,7.359776020E0
1.303236475E0,-4.551377296E0,1.430056667E1,1.203325748E1
1.304511268E0,-6.792350292E0,9.718064308E0,1.419522190E1
1.307340922E0,-3.236960649E0,3.241749048E0,1.504276943E1
1.308548922E0,6.924031258E0,-4.070142806E-1,1.603636360E1
1.311241845E0,1.693179512E1,1.130063176E0,1.694376564E1
1.312791576E0,1.882081985E1,4.592078686E0,1.531810284E1
1.315550667E0,1.319205093E1,6.268020153E0,9.598354340E0
1.317287961E0,6.801927090E0,8.149862289E0,4.146757126E0
1.319494730E0,3.593696833E0,1.090798283E1,2.475604534E0
1.320813230E0,2.667140722E0,1.343147182E1,3.153163671E0
1.323387999E0,2.401384354E0,1.495178986E1,3.303998232E0
1.324896191E0,3.287238836E0,1.374511242E1,-6.679822803E-1
1.327362384E0,6.066906929E0,1.135809326E1,-7.359776020E0
1.329015961E0,8.267178535E0,1.070926380E1,-1.186326981E1
1.331393461E0,7.266402245E0,1.118810463E1,-1.271321106E1
1.333274653E0,3.167528868E0,1.249533844E1,-1.061110210E1
1.336017975E0,-2.425326347E0,1.568202114E1,-5.647922039E0
1.337323653E0,-8.480262756E0,1.862210083E1,-4.309562966E-2
1.339623230E0,-1.362300777E1,1.594538307E1,1.920149803E0
1.341351653E0,-1.374511242E1,8.489839554E0,1.661576033E0
1.343770230E0,4.884171486E-1,2.406172752E0,5.374982834E0
1.345459653E0,1.129823780E1,4.704606533E0,9.871294022E0
1.347837845E0,1.382651520E1,6.931213856E0,1.147062016E1
1.349565422E0,8.394071579E0,5.612008572E0,8.810662270E0
1.351989461E0,3.131615877E0,4.484339714E0,6.208165169E0
1.353693268E0,1.936909199E0,6.074089527E0,7.218518257E0
1.356562436E0,2.312798738E0,8.403648376E0,9.799467087E0
1.358092691E0,1.541865945E0,8.343792915E0,9.935936928E0
1.360637744E0,8.882488012E-1,6.071695328E0,6.358999729E0
1.361797230E0,9.911994934E-1,6.119579315E0,3.241749048E0
1.364707936E0,-1.173158884E0,8.702922821E0,2.607285738E0
1.365951191E0,-7.242460251E0,1.116655636E1,3.026270866E0
1.368813167E0,-1.363258457E1,1.297178459E1,3.574543238E0
1.370071499E0,-1.644577217E1,1.552639771E1,5.298368454E0
1.372917821E0,-1.589749908E1,1.719515610E1,8.262390137E0
1.374134268E0,-1.311064816E1,1.323514652E1,9.119514465E0
1.377022936E0,-5.573701382E0,4.563348293E0,7.510610580E0
1.378801845E0,1.445619011E1,-2.133233786E0,6.682217121E0
1.381070821E0,1.973061562E1,-5.051765442E-1,7.771578789E0
1.382276345E0,2.152626801E1,5.044582844E0,9.425971985E0
1.385141051E0,1.271081638E1,7.817068577E0,6.576871872E0
1.386344115E0,1.989581585E0,9.095572472E0,1.922544003E0
1.389245436E0,-4.232948780E0,1.203565216E1,1.031900883E0
1.390440653E0,-5.453991413E0,1.474828243E1,2.650381327E0
1.393147807E0,-3.569754839E0,1.470279217E1,2.621650934E0
1.394572114E0,1.491587639E0,1.096783829E1,-1.790862918E0
1.397454667E0,1.166455078E1,7.857769966E0,-9.545681953E0
1.399114422E0,1.213381386E1,8.963891029E0,-1.057758331E1
1.400978691E0,5.743690014E0,1.195664310E1,-7.647080421E0
1.402893768E0,-2.968810081E0,1.640985870E1,-2.063801765E0
1.405217076E0,-1.037407589E1,2.005383301E1,3.296815634E0
1.406829884E0,-1.517684460E1,1.867477417E1,6.090848923E0
1.409289384E0,-1.464293766E1,1.168849277E1,6.507440090E0
1.410935691E0,-5.736507416E0,4.129997730E0,7.977479935E0
1.413375614E0,9.890447617E0,7.589619160E-1,1.126471901E1
1.415122461E0,2.223255730E1,2.212242365E0,1.390552330E1
1.417931667E0,2.152866173E1,4.642356873E0,1.310346603E1
1.419307961E0,1.137245846E1,5.580883980E0,9.030928612E0
1.421542422E0,2.873042107E0,7.256825447E0,5.748478413E0
1.423396730E0,-1.675941236E-2,1.013704967E1,6.476315498E0
1.425708807E0,-4.788403213E-2,1.259110641E1,9.299078941E0
1.427360614E0,6.823474765E-1,1.119768143E1,7.948749542E0
1.429740422E0,2.935291290E0,6.854599476E0,9.720458984E-1
1.431453345E0,5.990292549E0,5.645527840E0,-5.576095581E0
1.433925768E0,5.944802761E0,8.257601738E0,-8.154650688E0
1.435980807E0,6.248866320E-1,1.169088650E1,-7.750030994E0
1.438486320E0,-7.268796444E0,1.394143677E1,-6.493074894E0
1.440067307E0,-1.487996387E1,1.778891945E1,-2.339135170E0
1.442566090E0,-1.572272301E1,1.846647835E1,-6.033388376E-1
1.443703384E0,-1.497333717E1,1.551203251E1,1.072602391E0
1.446625730E0,-3.926490784E0,4.268861771E0,9.816226959E-1
1.447820768E0,8.805873871E0,1.197100878E-1,2.315192938E0
1.450740513E0,1.673786354E1,1.754949808E0,5.868188381E0
1.451985730E0,1.391031170E1,5.640739441E0,9.720458984E0
1.454844743E0,4.436455727E0,6.971915245E0,1.056082344E1
1.456106499E0,-3.083731890E0,7.012616634E0,9.768342972E0
1.458949089E0,-5.329493046E0,7.127538681E0,1.020887566E1
1.460654768E0,-3.643975019E0,6.368576527E0,1.085052204E1
1.462981538E0,-1.125274822E-1,4.244919777E0,9.742006302E0
1.464166576E0,4.335899353E0,2.185906172E0,6.277596951E0
1.467060051E0,6.840234280E0,3.502717018E0,2.841917515E0
1.468310230E0,3.620033026E0,7.433996201E0,8.690952063E-1
1.471141153E0,-4.548983097E0,1.077151299E1,-7.589619160E-1
1.472336845E0,-1.224394703E1,1.416888523E1,-1.125274777E0
1.475035191E0,-1.572751141E1,1.832522011E1,1.470039845E0
1.476471384E0,-1.521994019E1,1.850478554E1,3.682282209E0
1.479375474E0,-1.088164711E1,1.202368069E1,2.987963676E0
1.480952461E0,4.656722069E0,5.123591423E-1,9.385270476E-1
1.482827307E0,1.083615685E1,-4.979939461E-1,1.237802267E0
1.484617076E0,1.914403725E1,2.937685490E0,3.411737442E0
1.487068153E0,1.776497650E1,8.444349289E0,4.685452938E0
1.488745922E0,9.414001465E0,1.005564690E1,2.166752577E0
1.491135961E0,2.181117773E0,1.004607010E1,-4.094084799E-1
1.492814153E0,-8.140286058E-2,1.137485218E1,5.147533417E-1
1.495182768E0,4.884171486E-1,1.334767437E1,3.485957623E0
1.496939191E0,1.486799240E0,1.187045193E1,3.560178041E0
1.499842435E0,5.552153587E0,5.193023682E0,-3.172317266E0
1.501206037E0,7.326257229E0,5.966350555E0,-3.945644379E0
1.503336422E0,4.034229755E0,9.117119789E0,-2.300827742E0
1.505018153E0,-2.863465309E0,1.204762268E1,-1.180341482E0
1.507442884E0,-9.200917244E0,1.596453667E1,4.908113480E-1
1.509115614E0,-1.270363426E1,1.864125443E1,2.693476915E0
1.511497114E0,-1.284249783E1,1.611776543E1,3.624821424E0
1.513218461E0,-7.656657219E0,9.698910713E0,4.323928356E0
1.515727845E0,3.718195200E0,3.576937437E0,5.442020416E0
1.517454614E0,1.595495987E1,1.316810966E0,7.007828236E0
1.520260551E0,2.084631348E1,3.035847664E0,7.922413349E0
1.521770191E0,1.502840424E1,5.082890034E0,6.761225700E0
1.524329128E0,4.252102375E0,7.256825447E0,5.872976780E0
1.525477268E0,-3.825934410E0,9.892841339E0,6.959944248E0
1.528377961E0,-7.685387611E0,1.064940929E1,8.252813339E0
1.529607076E0,-9.232041359E0,8.997409821E0,8.968679428E0
1.532502935E0,-7.929595947E0,4.910507679E0,7.050923824E0
1.533756845E0,-3.093308687E0,2.829946518E0,4.484339714E0
1.536597230E0,1.221042871E0,5.662287235E0,4.328716755E0
1.537841422E0,-3.351882398E-1,8.784325600E0,3.804386616E0
1.540711281E0,-6.572083473E0,9.995792389E0,2.073378563E0
1.542418191E0,-1.161666679E1,1.357991219E1,2.817975283E0
1.544748705E0,-1.118810463E1,1.544978333E1,4.589684486E0
1.546020730E0,-9.263166428E0,1.571553993E1,7.407660007E0
1.548817474E0,-5.796362400E0,9.617507935E0,7.067683220E0
1.550029461E0,2.133233786E0,3.040636063E0,6.409277916E0
1.552921243E0,1.333330917E1,6.153098345E-1,6.576871872E0
1.554144307E0,2.064759636E1,1.977610588E0,5.291185856E0
1.556821653E0,1.440830612E1,6.505045891E0,1.187524080E0
1.558245807E0,6.246472359E0,1.027112484E1,-1.029506683E0
1.561127551E0,8.834604025E-1,1.412339592E1,-2.090138197E0
1.562839307E0,-2.870647907E0,1.536598682E1,-2.968810081E0
1.564594153E0,-5.576095581E0,1.367328548E1,-3.986345768E0
1.566418268E0,-4.402936935E0,1.038125896E1,-5.762843609E0
1.568960922E0,1.158793569E0,9.394847870E0,-7.055712223E0
1.570522230E0,5.612008572E0,1.074038887E1,-7.663839817E0
1.572946999E0,3.806780815E0,1.104445267E1,-8.822632790E0
1.574630037E0,-2.257732153E0,1.145386124E1,-8.190564156E0
1.576992345E0,-7.405265808E0,1.434366226E1,-3.529053211E0
1.578714768E0,-1.039322948E1,1.717121506E1,2.935291290E0
1.581602551E0,-1.182256794E1,1.399410915E1,5.997475147E0
1.582903345E0,-8.791508675E0,5.604825974E0,5.410895824E0
1.585224153E0,1.295263171E0,-1.144428372E0,5.736507416E0
1.587047884E0,1.432450867E1,-1.244984865E0,8.774748802E0
1.589363999E0,1.961808968E1,3.078943491E0,1.163821411E1
1.591038191E0,1.249055004E1,4.826710701E0,9.619902611E0
1.593422191E0,7.661445141E-1,4.730942726E0,5.056553841E0
1.595149499E0,-6.251260757E0,7.208941460E0,4.211400986E0
1.597573537E0,-7.723694801E0,1.078587818E1,7.058106422E0
1.599291961E0,-6.926425457E0,1.157117653E1,8.956708908E0
1.602145127E0,-4.359841347E0,7.553706169E0,5.329493046E0
1.603738037E0,3.514688015E0,5.305551052E0,-2.164358377E0
1.606217666E0,4.752490520E0,9.404424667E0,-2.990357876E0
1.607404230E0,-5.674257874E-1,1.256955910E1,-2.822763920E0
1.610287012E0,-7.931990147E0,1.434605694E1,-1.996764183E0
1.611493576E0,-1.260547161E1,1.659181786E1,1.290474772E0
1.614391281E0,-1.413057804E1,1.835873795E1,6.366182327E0
1.615625460E0,-1.327105999E1,1.493981838E1,9.162610054E0
1.618495973E0,-7.412448406E0,6.081272125E0,7.402871609E0
1.619827537E0,4.232948780E0,-5.051765442E-1,5.736507416E0
1.622600973E0,1.574666500E1,1.046266198E0,8.176198959E0
1.624596230E0,1.803552055E1,6.873753071E0,1.142752457E1
1.626646704E0,9.528923035E0,9.083600998E0,9.986215591E0
1.627922845E0,-1.098938584E0,8.829815865E0,6.057330132E0
1.630716473E0,-6.392518520E0,1.081939793E1,5.750872612E0
1.631938345E0,-6.074089527E0,1.322556973E1,7.970297337E0
1.634820243E0,-3.213018656E0,1.157835960E1,7.462726593E0
1.636064037E0,1.647210717E0,6.665457726E0,2.703053713E0
1.638722537E0,7.690176010E0,4.934449673E0,-2.166752577E0
1.640135191E0,9.806650162E0,7.520187378E0,-4.752490520E0
1.643028627E0,5.049371243E0,1.023281765E1,-6.576871872E0
1.644594653E0,-5.643133640E0,1.373074722E1,-8.104372978E0
1.646469499E0,-8.116343498E0,1.603875732E1,-6.806715488E0
1.648356345E0,-1.122880554E1,1.968991470E1,-3.227383852E0
1.650750845E0,-1.189678860E1,1.615846634E1,-2.770091295E0
1.652531191E0,-7.261613846E0,7.010222435E0,-4.683058739E0
1.654785922E0,4.086902142E0,9.624691010E-1,-4.302380562E0
1.655728307E0,1.614888954E1,2.571372509E0,-1.347935557E0
1.657784345E0,1.904587364E1,5.315127850E0,1.556231081E-1
1.659722884E0,1.520796967E1,9.655815125E0,1.199495077E0
1.662369666E0,3.689464808E0,8.645462036E0,-7.182605267E-1
1.663643845E0,-5.458779812E0,7.472303391E0,1.991975784E0
1.665997499E0,-4.204218388E0,9.619902611E0,8.341399193E0
1.667729691E0,-2.576161146E0,9.689333916E0,1.204283428E1
1.670208999E0,-1.771709204E0,5.947196960E0,9.562441826E0
1.671819537E0,3.567360640E-1,3.983951569E0,5.164293289E0
1.674187730E0,1.438915253E0,6.660669327E0,3.981557369E0
1.675947999E0,-3.303998232E0,9.691728592E0,5.521028996E0
1.678366884E0,-1.116416264E1,1.122641182E1,8.080430984E0
1.680039807E0,-1.651520348E1,1.434845066E1,1.200692177E1
1.682916819E0,-1.803552055E1,1.746091270E1,1.595974827E1
1.684598807E0,-1.632127380E1,1.414973164E1,1.492784786E1
1.687011627E0,-8.954314232E0,5.406107426E0,1.014423275E1
1.688235076E0,5.719748020E0,-6.129156351E-1,7.139509678E0
1.691080935E0,2.104742622E1,5.985504389E-1,7.146692276E0
1.692336076E0,2.620453835E1,5.954379559E0,7.031770229E0
1.695185165E0,1.836831474E1,8.669404030E0,2.825158119E0
1.696368960E0,6.524199486E0,9.514557838E0,-3.148375273E0
1.699290089E0,-7.206547260E-1,1.317768574E1,-4.194641590E0
1.700548114E0,-3.124433279E0,1.699164963E1,-1.778891921E0
1.703394896E0,-3.131615877E0,1.669716263E1,-1.084573388E0
1.705214037E0,6.703764796E-1,9.605537415E0,-7.223306656E0
1.707436435E0,2.707842112E0,7.893682957E0,-9.533711433E0
1.708740537E0,4.647145271E0,7.560888767E0,-1.152568722E1
1.711506704E0,1.142034173E0,9.406818390E0,-1.015141487E1
1.712819768E0,-5.521028996E0,1.119049835E1,-7.422025204E0
1.715611704E0,-1.288319969E1,1.488954067E1,-9.792284966E-1
1.716887191E0,-1.440112305E1,1.542105293E1,2.865859509E0
1.719716819E0,-1.283052731E1,1.154244614E1,4.520252705E0
1.721153383E0,-5.906495571E0,5.872976780E0,5.628767967E0
1.723821012E0,6.337451935E0,2.185906172E0,7.086836815E0
1.725442460E0,1.749203682E1,2.877830505E0,8.916007042E0
1.727312230E0,1.885194397E1,5.681440830E0,9.943120003E0
1.729066076E0,1.064701462E1,5.207388878E0,7.376535416E0
1.731593307E0,2.310404539E0,4.280832767E0,4.920084476E0
1.733235230E0,-1.173158884E0,7.508216381E0,7.390900612E0
1.735772460E0,-3.588908434E0,1.158554173E1,1.172201157E1
1.737322268E0,-8.458714485E0,1.188242340E1,1.288798809E1
1.739799922E0,-1.231816769E1,8.020575523E0,9.107542992E0
1.741432576E0,-1.115458584E1,6.256049156E0,5.679046631E0
1.744297165E0,-8.250418663E0,8.554482460E0,6.375759125E0
1.745615499E0,-8.360552788E0,9.627084732E0,7.467514992E0
1.748004268E0,-1.048899746E1,9.495404243E0,8.006210327E0
1.749492499E0,-1.129105568E1,1.200931549E1,1.067095661E1
1.751931999E0,-1.037886429E1,1.445858383E1,1.353921032E1
1.753598345E0,-8.858546257E0,1.122880554E1,1.287841129E1
1.755968422E0,-3.842693806E0,4.249708176E0,1.031661510E1
1.757720883E0,7.469909191E0,2.418143749E-1,9.066842079E0
1.760146268E0,2.007298660E1,1.644816518E0,8.465897560E0
1.761889730E0,2.432269478E1,5.808333397E0,5.473145008E0
1.764718704E0,1.705150414E1,8.377311707E0,1.651999205E-1
1.766274268E0,2.387019157E0,1.094150162E1,-5.492298603E0
1.768786588E0,-2.164358377E0,1.505952835E1,-3.974374771E0
1.770093307E0,-3.466804028E0,1.663730812E1,-2.978386879E0
1.772856242E0,-5.499481201E0,1.452322769E1,-4.781220913E0
1.774068268E0,-1.565807939E0,9.555258751E0,-9.526528358E0
1.776961165E0,5.343858242E0,8.015787125E0,-1.174595356E1
1.778152037E0,8.171410561E0,9.064447403E0,-1.059673691E1
1.781066088E0,4.096478939E0,9.406818390E0,-8.944737434E0
1.782294768E0,-3.069366693E0,1.059434223E1,-6.078877926E0
1.785171511E0,-9.967061996E0,1.536119843E1,8.954314590E-1
1.786977960E0,-1.507389355E1,1.741781807E1,7.419631004E0
1.789210011E0,-1.569638634E1,1.152089882E1,8.518569946E0
1.790409730E0,-8.604761124E0,2.583343744E0,7.941566944E0
1.793280511E0,5.772420406E0,-2.458845139E0,9.294290543E0
1.794470383E0,1.883997345E1,1.005564705E-1,1.332852077E1
1.797384588E0,2.068590355E1,4.678270340E0,1.541387081E1
1.798601960E0,1.224394703E1,4.252102375E0,1.002691650E1
1.801316460E0,2.703053713E0,3.871424198E0,4.280832767E0
1.802935768E0,-2.717418909E0,8.298302650E0,6.033388138E0
1.805594319E0,-5.252878666E0,1.214339066E1,1.082897472E1
1.807228422E0,-4.987122059E0,8.135497093E0,9.789890289E0
1.809044114E0,-3.028665066E0,6.062118530E0,7.173028469E0
1.810855307E0,1.994369984E0,4.996698856E0,1.891419291E0
1.813296383E0,3.512293816E0,7.560888767E0,-1.357512355E0
1.814977268E0,-3.854664862E-1,1.020408726E1,-3.047818661E0
1.817634614E0,-5.777208805E0,1.233971596E1,-3.351882458E0
1.819313422E0,-9.600749016E0,1.575624180E1,-1.125274822E-1
1.821558806E0,-1.161427212E1,1.696531296E1,3.622427225E0
1.823304537E0,-7.795520782E0,9.706093788E0,3.519476414E0
1.826061665E0,2.784456491E0,4.695029736E0,2.331952572E0
1.827341268E0,1.548090839E1,3.485957623E0,1.450886250E0
1.829683883E0,2.081279564E1,5.726930618E0,1.233013868E0
1.831410614E0,1.544738960E1,7.759607792E0,5.243301988E-1
1.833981153E0,5.937620163E0,9.215282440E0,0.000000000E0
1.835516499E0,-1.058237195E0,1.236844635E1,1.944091797E0
1.837895383E0,-5.137956619E0,1.474828243E1,4.946420670E0
1.839615191E0,-6.607996464E0,1.184890461E1,4.888959885E0
1.842059345E0,-2.777273893E0,6.469132900E0,2.609679937E0
1.843762422E0,5.449203014E0,5.140350819E0,2.545036316E0
1.846607934E0,1.042435455E1,7.019799232E0,3.782838583E0
1.848151230E0,6.660669327E0,8.025363922E0,3.213018656E0
1.850683550E0,-2.109291792E0,8.652645111E0,1.742978811E0
1.851863191E0,-8.911218643E0,1.255040550E1,3.327940464E0
1.854753934E0,-1.259350109E1,1.715206146E1,7.843404770E0
1.855973845E0,-1.380496693E1,1.430535507E1,8.815450668E0
1.858858857E0,-9.471462250E0,5.679046631E0,5.820304394E0
1.860056499E0,1.757344007E0,3.495534360E-1,4.448426723E0
1.862964165E0,1.369722748E1,2.140416384E0,5.621585369E0
1.864190345E0,1.633085060E1,6.414066315E0,5.092466831E0
1.867046396E0,8.128314972E0,8.784325600E0,2.013523579E0
1.869258653E0,-3.876212597E0,1.021605873E1,-5.243301988E-1
1.871056242E0,-4.513070107E0,1.128147888E1,4.453215301E-1
1.872254768E0,-2.444479942E0,1.272757626E1,3.150769472E0
1.875125165E0,7.613561153E-1,1.101332760E1,3.043030262E0
1.876323345E0,4.900930882E0,8.058882713E0,3.351882473E-2
1.879228549E0,1.143470764E1,7.125144482E0,-4.129997730E0
1.880565845E0,8.760383606E0,8.815450668E0,-3.567360640E0
1.883151345E0,9.097966552E-2,9.576807022E0,-1.637633920E0
1.884613499E0,-8.020575523E0,1.148977375E1,1.046266198E0
1.887437126E0,-1.280179691E1,1.599805546E1,6.320692539E0
1.889125883E0,-1.595495987E1,1.681447792E1,1.026154804E1
1.890920114E0,-1.570596313E1,1.165976238E1,1.105163479E1
1.892770614E0,-8.358158112E0,5.216965675E0,1.150174522E1
1.895167806E0,5.216965675E0,1.134851575E0,1.202846909E1
1.896822845E0,1.662294197E1,9.911994934E-1,1.253125191E1
1.899273230E0,1.853112030E1,3.521870613E0,1.214817905E1
1.900986383E0,1.291671848E1,6.033388138E0,9.832986832E0
1.903465153E0,6.277596951E0,8.034940720E0,7.041347027E0
1.905287653E0,1.697489023E0,9.696516991E0,5.978321552E0
1.907911203E0,-1.194706678E0,1.036210537E1,6.385335922E0
1.909209691E0,-2.554613113E0,9.548076630E0,5.877765179E0
1.911521422E0,-1.472434044E0,9.399636269E0,3.562572241E0
1.913297153E0,6.871358752E-1,1.058237171E1,-5.003881454E-1
1.915712268E0,2.633621991E-1,1.096065521E1,-5.212177277E0
1.917408806E0,-2.913743496E0,1.019211674E1,-8.128314972E0
1.919804960E0,-5.080495834E0,1.178186703E1,-6.581660271E0
1.921508268E0,-4.900930882E0,1.790623474E1,-1.268926859E-1
1.923906306E0,-5.295974255E0,2.053027916E1,4.163516521E0
1.925595229E0,-3.782838583E0,8.439560890E0,1.268926859E-1
1.928461472E0,5.559336185E0,2.583343744E0,5.410895944E-1
1.930080037E0,1.774103546E1,3.751713991E0,5.248090267E0
1.932542549E0,2.214397240E1,7.498639584E0,8.767566681E0
1.933771191E0,1.389834118E1,7.908048153E0,8.090007782E0
1.936611395E0,9.624691010E-1,5.882553577E0,5.602431774E0
1.937886729E0,-6.926425457E0,7.316680431E0,7.252037048E0
1.940715203E0,-9.284713745E0,1.093671322E1,1.204762268E1
1.942044422E0,-1.005804157E1,1.099417400E1,1.409466553E1
1.944818780E0,-8.403648376E0,7.419631004E0,1.148019695E1
1.946160345E0,-2.592920542E0,5.489904404E0,7.967903137E0
1.948922395E0,3.440467834E0,6.234501362E0,5.971138954E0
1.950722960E0,4.537012100E0,6.445190907E0,4.015076160E0
1.952961318E0,1.917755604E0,6.335057735E0,2.166752577E0
1.954182653E0,-8.595184088E-1,1.086967564E1,4.017470360E0
1.957030395E0,-4.005499363E0,1.718079185E1,7.896077156E0
1.958251768E0,-7.673416615E0,1.521515179E1,6.361393929E0
1.961134357E0,-7.235277653E0,6.435614109E0,7.972691655E-1
1.962359999E0,1.424550056E0,8.906430602E-1,-1.015141487E0
1.965078345E0,1.363976669E1,3.215412855E0,1.070208192E0
1.966560883E0,1.823663521E1,8.499416351E0,1.642422318E0
1.969343434E0,1.168130970E1,9.643844604E0,-2.908955097E0
1.971000306E0,-5.985504389E-2,8.542511940E0,-9.943120003E0
1.972918499E0,-1.429338455E0,9.825803757E0,-9.311050415E0
1.974615576E0,-1.754949808E0,1.315613842E1,-5.157110691E0
1.977427229E0,-1.843535304E0,1.342907715E1,-2.061407566E0
1.978743768E0,-4.644751251E-1,1.048181534E1,-2.853888512E0
1.981161460E0,5.705382824E0,8.434772491E0,-6.004657745E0
1.982825229E0,6.476315498E0,8.092401505E0,-6.263231754E0
1.985360576E0,2.547430515E0,8.667010307E0,-3.380612850E0
1.986974768E0,-2.870647907E0,1.194227791E1,2.647987127E0
1.989808857E0,-8.152256966E0,1.637633896E1,9.119514465E0
1.991154268E0,-1.248336792E1,1.561258888E1,1.164300251E1
1.993491499E0,-1.200692177E1,7.592013359E0,9.682151794E0
1.995141960E0,-2.590526342E0,-9.265560508E-1,7.984662533E0
1.997458229E0,1.259589481E1,-2.743755102E0,9.933543205E0
1.999182614E0,2.243367004E1,2.126051188E0,1.316810894E1
2.001569191E0,1.862210083E1,5.509057999E0,1.126471901E1
2.003251076E0,6.737283707E0,4.525041103E0,3.670311213E0
2.005680345E0,-2.255337954E0,6.011840343E0,-1.110909581E0
2.007426229E0,-4.910507679E0,1.063025570E1,1.460463107E-1
2.010225203E0,-3.778050184E0,1.324232960E1,1.836352706E0
2.011791576E0,-6.344634295E-1,1.109712505E1,-9.289502501E-1
2.014293164E0,4.800374508E0,7.735665798E0,-7.115567684E0
2.015471229E0,9.251194954E0,7.967903137E0,-1.177947235E1
2.018362741E0,7.036558628E0,1.072841740E1,-1.243069553E1
2.019602229E0,-8.044517636E-1,1.313937855E1,-1.020408726E1
2.022467126E0,-7.807491779E0,1.584482670E1,-5.813121796E0
2.023693153E0,-1.118810463E1,1.921586227E1,8.044517636E-1
2.026571818E0,-1.232056236E1,1.658942413E1,4.745307922E0
2.027864306E0,-9.840168953E0,7.484274387E0,4.498704910E0
2.030675626E0,-1.101332784E0,7.924807668E-1,6.100425720E0
2.032394076E0,1.502840424E1,2.470816135E0,1.396059036E1
2.034712241E0,1.609861183E1,4.474762917E0,1.652238655E1
2.035925806E0,9.251194954E0,5.583278179E0,1.798045540E1
2.038779818E0,-1.266532660E0,4.328716755E0,1.545696640E1
2.040002345E0,-6.088454723E0,1.024239445E1,1.851436234E1
2.042883049E0,-4.326322556E0,1.257434750E1,2.054943275E1
2.044091499E0,-2.030282974E0,9.028534889E0,1.765484428E1
2.046794345E0,2.535459518E0,4.869806290E0,1.223197651E1
2.048221922E0,7.896077156E0,5.602431774E0,8.259995461E0
2.051088472E0,6.916848660E0,8.836998940E0,5.887341976E0
2.052794422E0,-1.493981838E0,1.072123528E1,3.464409828E0
2.054549422E0,-9.694122314E0,1.167891598E1,7.565677166E-1
2.056345037E0,-1.319205093E1,1.585440350E1,1.359906554E0
2.058812691E0,-1.409945393E1,1.945288849E1,3.507505417E0
2.060449845E0,-1.330457878E1,1.543781281E1,1.268926859E0
2.062914999E0,-7.520187378E0,8.805873871E0,-1.458068848E0
2.064807345E0,4.333505154E0,5.288791656E0,-1.958456993E0
2.067089845E0,1.509304714E1,6.086060524E0,-1.917755604E0
2.068981729E0,1.648407936E1,9.258378029E0,-1.774103403E0
2.071563241E0,1.029267311E1,1.011550236E1,-3.433285236E0
2.072892306E0,4.848258495E0,1.043871975E1,-4.024652958E0
2.075212345E0,2.367865562E0,1.187045193E1,-1.024718285E0
2.076913037E0,1.915361360E-2,1.151371574E1,1.757344007E0
2.079320768E0,-2.700659513E0,9.385271072E0,2.743755102E0
2.081037729E0,-2.564189911E0,7.807491779E0,2.458845139E0
2.083382229E0,-3.878606856E-1,9.299078941E0,3.157952070E0
2.085116883E0,-1.216254473E0,1.120007515E1,4.608838081E0
2.087549268E0,-8.118738174E0,9.059659004E0,5.566518784E0
2.089258152E0,-9.500192642E0,9.093177795E0,8.872911453E0
2.092103972E0,-8.020575523E0,1.087925243E1,1.442985344E1
2.093608652E0,-6.591237068E0,9.397241592E0,1.745372963E1
2.096176664E0,-3.938461781E0,4.304774761E0,1.671631622E1
2.097323576E0,2.887407303E0,-2.729389966E-1,1.445619011E1
2.100245395E0,1.225113010E1,-1.051054597E0,1.212184334E1
2.101516845E0,1.682166100E1,2.200271368E0,9.945513725E0
2.104349472E0,1.297657299E1,5.616796970E0,6.315904140E0
2.105547037E0,5.681440830E0,8.437167168E0,1.362300754E0
2.108454049E0,-3.902548850E-1,1.288080502E1,-7.398083210E-1
2.109692191E0,-5.054159641E0,1.671152878E1,-2.561795712E-1
2.112558664E0,-8.604761124E0,1.671152878E1,-4.453215301E-1
2.114363076E0,-6.335057735E0,1.163103199E1,-4.314351559E0
2.116605972E0,-3.299209833E0,1.087446404E1,-5.509057999E0
2.117991922E0,2.279279947E0,1.104684639E1,-6.952761650E0
2.120675241E0,2.511517525E0,1.078348446E1,-7.345410824E0
2.122014345E0,-1.644816518E0,1.005325317E1,-5.853823185E0
2.124779741E0,-5.717353821E0,1.209790134E1,-6.799532771E-1
2.125985345E0,-8.920795441E0,1.629254341E1,6.933608055E0
2.128682345E0,-1.133175659E1,1.557907009E1,1.110670185E1
2.130138037E0,-9.263166428E0,8.164227486E0,1.010592556E1
2.132987856E0,1.326387763E0,5.770025849E-1,7.924807549E0
2.134577114E0,2.175611115E1,2.566584110E0,1.028070164E1
2.136494537E0,2.411439896E1,5.990292549E0,1.181777954E1
2.138300768E0,1.866040802E1,1.007480049E1,1.115697956E1
2.140811268E0,6.969521046E0,9.028534889E0,5.193023682E0
2.142377768E0,-3.327940464E0,9.318233490E0,1.419761658E0
2.144802806E0,-3.991134167E0,1.097980881E1,3.840299606E0
2.146473037E0,-2.260126352E0,1.018493366E1,4.489128113E0
2.148881152E0,9.481038451E-1,8.317456245E0,1.845929503E0
2.150619845E0,3.169923067E0,8.003816605E0,-1.687912226E0
2.153473125E0,1.505952835E0,9.143456459E0,-4.079719543E0
2.154861652E0,-3.936067581E0,1.066856289E1,-4.625597477E0
2.157083652E0,-8.959102631E0,1.326866627E1,-2.444479942E0
2.158799575E0,-1.076911926E1,1.787989807E1,2.724601507E0
2.161233768E0,-9.813833237E0,1.766681480E1,5.434837818E0
2.162935883E0,-5.973533154E0,9.763554573E0,3.028665066E0
2.165308768E0,2.284068346E0,1.307234168E0,1.321599364E0
2.167084268E0,1.375947762E1,-1.630451322E0,2.588132143E0
2.169483152E0,2.036268616E1,2.207453966E0,5.676652431E0
2.171155652E0,1.482489681E1,7.496245384E0,7.453149796E0
2.174020241E0,5.315127969E-1,8.877699852E0,5.087678432E0
2.175643075E0,-1.319683933E1,1.129823780E1,4.043806553E0
2.178100625E0,-1.358709431E1,1.323275280E1,5.951985359E0
2.179432191E0,-1.103726959E1,1.433648014E1,9.009381294E0
2.182170587E0,-6.445190907E0,9.595960617E0,8.085219383E0
2.183391037E0,1.388636947E0,3.373430252E0,4.683058739E0
2.186275048E0,1.088404083E1,1.515529633E0,2.264914751E0
2.187492999E0,1.448013210E1,3.924096584E0,1.766920805E0
2.190379356E0,3.301604033E0,7.010222435E0,5.195417404E-1
2.191607152E0,-5.485116005E0,1.111149025E1,2.145204782E0
2.194482587E0,-1.001015759E1,1.617522621E1,5.633556366E0
2.196238306E0,-1.151132202E1,1.540908241E1,5.250484467E0
2.198521702E0,-9.730035782E0,9.859322548E0,1.982398987E0
2.199705614E0,-2.205059767E0,6.181828976E0,9.145850539E-1
2.202590471E0,8.245630264E0,7.048529625E0,1.970427990E0
2.203885652E0,1.340034676E1,9.200917244E0,1.642422318E0
2.206694240E0,9.684545517E0,8.214506149E0,-1.932120800E0
2.207997422E0,3.045424461E0,6.442796707E0,-4.917690277E0
2.210586691E0,-4.046200812E-1,9.519346237E0,-1.316810966E0
2.212178345E0,-1.551442742E0,1.419522190E1,4.814739704E0
2.214902856E0,-3.402160645E0,1.383848572E1,6.612784863E0
2.216595614E0,-4.917690277E0,8.640673637E0,3.806780815E0
2.218436114E0,-2.418143749E0,5.420472622E0,1.891419291E0
2.220225922E0,2.205059767E0,8.643068314E0,4.635174274E0
2.222627845E0,2.482787132E0,1.233971596E1,7.254431248E0
2.224291499E0,-2.964021683E0,1.188242340E1,6.169857979E0
2.226694499E0,-9.124302864E0,1.193270111E1,6.560112476E0
2.228375345E0,-1.242590714E1,1.543302441E1,1.218169785E1
2.230772883E0,-1.336682796E1,1.638831139E1,1.762371826E1
2.232506075E0,-1.176750088E1,1.015380955E1,1.744894218E1
2.235374933E0,-4.319139957E0,1.096544385E0,1.396298409E1
2.236737768E0,1.490151119E1,-3.490746021E0,1.060870743E1
2.238938383E0,1.951034927E1,-1.467645645E0,1.074038887E1
2.240569460E0,2.077688217E1,3.406949043E0,9.208099365E0
2.243014614E0,1.359667110E1,4.996698856E0,2.394201756E0
2.244687460E0,5.152322292E0,7.369352818E0,-3.993528366E0
2.247057229E0,-1.072602391E0,1.473391724E1,-5.528211594E0
2.248833460E0,-1.228225470E0,1.682884407E1,-6.136339188E0
2.251253998E0,1.400607944E0,1.494460678E1,-9.828198433E0
2.252957075E0,6.143521786E0,1.238281155E1,-1.540668774E1
2.255792702E0,8.396465302E0,1.177707863E1,-1.863167763E1
2.257362922E0,4.932055473E0,1.225591850E1,-1.856703377E1
2.259860856E0,-2.906560898E0,1.334528065E1,-1.565329075E1
2.261015037E0,-1.095347309E1,1.546175480E1,-8.121131897E0
2.263930163E0,-1.723585892E1,1.794932938E1,1.723825216E0
2.265155306E0,-2.149993134E1,1.641464615E1,9.715670586E0
2.268034779E0,-2.124135780E1,9.835380554E0,1.469082165E1
2.269270729E0,-1.329979038E1,1.362300754E0,1.780328369E1
2.272138509E0,1.120486379E0,-2.827552319E0,2.234747887E1
2.273436960E0,1.365652657E1,-5.554547906E-1,2.868732452E1
2.276173240E0,1.565807915E1,1.814804912E0,3.168486595E1
2.277899114E0,6.533776283E0,1.762132406E0,2.407609177E1
2.280178202E0,4.019864559E0,3.083731890E0,2.199553108E1
2.281378922E0,1.453280449E0,8.157045364E0,2.112164688E1
2.284247048E0,-1.412578970E-1,1.208114147E1,2.124614525E1
2.285629191E0,-1.283292055E0,1.104445267E1,1.763329506E1
2.288351702E0,6.200982332E-1,6.833051682E0,8.760383606E0
2.289617345E0,3.837905407E0,5.442020416E0,-8.547300100E-1
2.292327498E0,3.043030262E0,8.798690796E0,-6.619967937E0
2.293684652E0,-3.794809580E0,1.353681660E1,-8.973467827E0
2.296560163E0,-1.264138508E1,1.705150414E1,-1.038125896E1
2.298245191E0,-1.862928391E1,1.941458130E1,-9.390059471E0
2.300099383E0,-1.802594376E1,1.857661057E1,-8.853757858E0
2.302466806E0,-1.298854446E1,1.347935581E1,-8.418013573E0
2.304414422E0,-2.243366957E0,7.685387611E0,-6.785167694E0
2.305962383E0,1.196621990E1,4.520252705E0,-3.837905407E0
2.308364960E0,2.352063751E1,4.575319290E0,-1.280897856E0
2.310037152E0,1.764526558E1,3.634398222E0,-1.977610588E0
2.312548037E0,6.742072105E0,3.088520288E0,-1.561019540E0
2.314207498E0,-1.192312479E0,6.495469093E0,2.832340717E0
2.317041279E0,-5.549759388E0,1.115458584E1,8.939949036E0
2.318371191E0,-9.318233490E0,1.225352383E1,1.275870132E1
2.320671998E0,-1.202128696E1,7.931990147E0,1.210747814E1
2.322671768E0,-1.010831928E1,3.002328873E0,1.007719517E1
2.324835268E0,-4.027047157E0,3.478775024E0,1.161906052E1
2.326502768E0,8.092401624E-1,5.942408562E0,1.392228317E1
2.328855114E0,1.824381709E0,4.972756863E0,1.223197651E1
2.330601806E0,2.956839085E0,3.778050184E0,8.932766914E0
2.333083306E0,6.160281181E0,7.393294811E0,8.846575737E0
2.334735498E0,7.412448406E0,1.133415127E1,9.770736694E0
2.337584009E0,5.477933407E0,9.346963882E0,6.327875137E0
2.339127037E0,7.592013359E0,1.594538331E0,-3.691859007E0
2.341656048E0,1.069250488E1,1.462857246E0,-5.734113216E0
2.342844152E0,1.626141739E1,6.363788128E0,-7.407660007E0
2.345724894E0,1.460702419E1,1.307234097E1,-9.054870605E0
2.346943575E0,5.171475887E0,1.682405472E1,-1.228704357E1
2.349828625E0,-5.592854977E0,1.856224632E1,-1.496136665E1
2.351115383E0,-1.286883450E1,1.882081985E1,-1.498052025E1
2.353933086E0,-1.428859615E1,1.778891945E1,-1.144188976E1
2.355241998E0,-6.239289761E0,1.344583702E1,-4.110844135E0
2.358037086E0,2.944868088E0,7.307103634E0,-2.820369720E0
2.359859575E0,1.113064384E1,3.409343243E0,-1.790862918E0
2.362083586E0,1.357033539E1,3.445256233E0,1.630451322E0
2.363265806E0,7.481880188E0,5.250484467E0,6.622362137E0
2.366153586E0,-3.160346270E0,8.530540466E0,1.266532707E1
2.367456537E0,-1.226788998E1,1.269166279E1,1.924219894E1
2.370258624E0,-1.692461205E1,1.338837624E1,2.353021431E1
2.371491768E0,-1.652956772E1,8.712499619E0,2.295560646E1
2.374283575E0,-9.210494041E0,1.644816518E0,1.914403725E1
2.375583652E0,3.758896589E0,-1.448492050E0,1.542823601E1
2.378466394E0,1.475546551E1,1.549048543E0,1.326866627E1
2.380123421E0,1.550724411E1,5.834669590E0,9.770736694E0
2.382035114E0,7.094019413E0,7.580042362E0,4.383783340E0
2.383805037E0,-1.757344007E0,9.433155060E0,1.043871999E0
2.386225960E0,-5.659893036E0,1.333091545E1,1.836352706E0
2.387849960E0,-6.308721542E0,1.694615936E1,4.247313976E0
2.390392768E0,-6.007051945E0,1.609861183E1,3.790021181E0
2.391955883E0,-3.473986626E0,1.136288166E1,-7.805097699E-1
2.394326268E0,1.043871999E0,8.118738174E0,-4.680664539E0
2.396132421E0,3.689464808E0,7.271190643E0,-5.765237808E0
2.398908547E0,1.798045516E0,6.057330132E0,-5.861005783E0
2.400186921E0,-2.573766708E0,6.634333134E0,-3.397372246E0
2.402516729E0,-5.111620426E0,1.146343803E1,2.310404539E0
2.404226998E0,-4.936843872E0,1.563892555E1,5.877765179E0
2.406654460E0,-4.319139957E0,1.394383049E1,4.484339714E0
2.408372845E0,-1.850717902E0,6.859387875E0,4.525041282E-1
2.410722652E0,1.203804588E1,3.471592367E-1,2.681505978E-1
2.412530691E0,2.221819115E1,3.339911461E0,2.808398485E0
2.414855845E0,2.320939064E1,6.193799973E0,5.363011956E-1
2.416658998E0,1.447294903E1,6.689399719E0,-6.016628742E0
2.419422817E0,4.077325344E0,8.480262756E0,-1.024957752E1
2.421052268E0,-2.272097349E0,1.304361057E1,-8.128314972E0
2.423505163E0,-4.922478676E0,1.701798630E1,-2.947262287E0
2.424828498E0,-6.813898087E0,1.626620674E1,1.101332754E-1
2.427574432E0,-7.196970463E0,1.018972206E1,-9.409212470E-1
2.428975345E0,-3.591302633E0,5.329493046E0,-2.003946781E0
2.431678932E0,1.367089152E0,5.741295815E0,7.757213712E-1
2.433019037E0,2.425326347E0,7.201758862E0,4.225766182E0
2.435783124E0,-1.268926859E0,6.718130112E0,5.753266811E0
2.437077537E0,-6.279991150E0,6.720524311E0,8.157045364E0
2.439887163E0,-9.536105156E0,9.361329079E0,1.327824306E1
2.441632960E0,-1.199495029E1,1.121204662E1,1.907460403E1
2.443925855E0,-1.202846909E1,9.047688484E0,1.842817116E1
2.445157575E0,-8.027758598E0,3.330334663E0,1.517684460E1
2.447994740E0,1.908178806E0,1.285686255E0,1.287362289E1
2.449264614E0,1.116416264E1,3.835511208E0,1.202846909E1
2.452098432E0,1.241154194E1,7.366958618E0,9.358934402E0
2.453366421E0,6.062118530E0,1.024478912E1,5.049371243E0
2.456019191E0,-1.893813491E0,1.347935581E1,2.636016130E0
2.457433152E0,-6.282385349E0,1.685518074E1,3.009511471E0
2.460305393E0,-7.218518257E0,1.810734749E1,4.189853191E0
2.461929421E0,-3.409343243E0,1.168130970E1,1.199495077E0
2.463776921E0,3.758896589E0,7.481880188E0,-1.625662923E0
2.465613306E0,9.677363396E0,7.905653954E0,-1.350329757E0
2.468058998E0,7.386112213E0,1.015380955E1,6.943184733E-1
2.469702498E0,-3.100491285E0,1.162863731E1,2.947262287E0
2.472138575E0,-1.397016716E1,1.294784260E1,5.738901615E0
2.473784806E0,-1.796369553E1,1.485123348E1,9.715670586E0
2.476234998E0,-1.533246803E1,1.517444992E1,1.328542519E1
2.477925768E0,-8.796297073E0,1.048181534E1,1.334767437E1
2.480776970E0,2.063801765E0,2.521094322E0,9.672574997E0
2.482189229E0,1.602678680E1,-2.454056740E0,5.540182590E0
2.484408960E0,2.658521652E1,-1.663970232E0,2.882618904E0
2.486059344E0,2.646311188E1,3.332728863E0,7.709329724E-1
2.488447498E0,1.583524990E1,9.054870605E0,-1.738190413E0
2.490104152E0,2.047042370E0,1.346020222E1,-4.223371983E0
2.492565729E0,-7.687781811E0,1.651520348E1,-5.204994678E0
2.494225383E0,-1.217212105E1,1.723346329E1,-4.572925091E0
2.496868960E0,-1.322078133E1,1.510501862E1,-3.909731388E0
2.498475998E0,-1.162145519E1,1.179862595E1,-2.880224705E0
2.501197547E0,-7.728483200E0,1.001494598E1,-1.261744261E0
2.502752537E0,-4.371812344E0,1.004607010E1,2.130839586E0
2.505265893E0,-5.015852451E0,9.442731857E0,2.683900118E0
2.506437652E0,-7.592013359E0,7.201758862E0,3.866635799E0
2.509335585E0,-7.884106159E0,6.301538944E0,7.831433773E0
2.510553191E0,-3.778050184E0,9.047688484E0,1.545217800E1
2.513440009E0,1.553836942E0,1.171961689E1,2.222058678E1
2.514665268E0,3.998316765E0,8.683769226E0,2.218227959E1
2.517544701E0,5.712565422E0,1.948880196E0,1.683363152E1
2.519055229E0,1.545696640E1,-5.386953950E-1,1.013704967E1
2.521648701E0,2.216551971E1,4.288015366E0,7.381323814E0
2.523423075E0,2.066674995E1,8.872911453E0,2.614468336E0
2.525687816E0,1.286404610E1,9.969455719E0,-5.066130638E0
2.526896114E0,5.700594425E0,1.023042393E1,-1.226549530E1
2.529756970E0,1.182735682E0,1.301488018E1,-1.494221306E1
2.530975421E0,-3.040636063E0,1.706108093E1,-1.368046856E1
2.533861085E0,-7.184999466E0,1.837789154E1,-1.277306652E1
2.535142152E0,-8.667010307E0,1.533486176E1,-1.442985344E1
2.537907998E0,-6.665457726E0,1.138203526E1,-1.588792229E1
2.539443844E0,-3.833117008E0,1.002452278E1,-1.336203957E1
2.542069239E0,-2.396595955E0,1.054645824E1,-8.312667847E0
2.543763575E0,-3.711012602E0,1.067095661E1,-2.844311714E0
2.545542229E0,-6.742072105E0,1.029506683E1,3.629609823E0
2.547371191E0,-8.813055992E0,9.141061783E0,1.072362900E1
2.549954614E0,-8.082824707E0,6.265625954E0,1.682405472E1
2.550832537E0,-6.438008308E0,4.299986362E0,1.925895882E1
2.552892575E0,-8.164227605E-1,7.206547260E-1,2.243127632E1
2.554552883E0,6.200982571E0,-2.154781520E-1,2.321178627E1
2.556872191E0,1.097741508E1,2.341529369E0,2.193807030E1
2.558628037E0,9.509769440E0,5.250484467E0,1.742978859E1
2.561492855E0,2.671929121E0,6.576871872E0,1.149695683E1
2.562749191E0,-5.104437828E0,8.001421928E0,9.212887764E0
2.565130998E0,-8.951920509E0,1.092953110E1,1.109951878E1
2.566845421E0,-9.373299599E0,1.416409683E1,1.315374374E1
2.569353229E0,-8.207323074E0,1.406114674E1,9.792284966E0
2.571038844E0,-5.118803024E0,1.091037750E1,1.010353088E0
2.573304306E0,2.030282974E0,1.013226128E1,-7.912836552E0
2.575054421E0,3.591302633E0,1.352484512E1,-6.435614109E0
2.577664844E0,1.357512355E0,1.475546551E1,-4.745307922E0
2.579442075E0,-2.415749550E0,1.320162773E1,-5.106832027E0
2.582033931E0,-4.678270340E0,1.275870132E1,-4.352658749E0
2.583600537E0,-3.512293816E0,1.456392860E1,-1.493981838E0
2.586106239E0,-2.346317619E-1,1.529655457E1,1.403002143E0
2.587287152E0,3.667917013E0,1.075954247E1,1.300051570E0
2.590175239E0,8.669404030E0,4.237737179E0,-5.315127969E-1
2.591409383E0,1.355118179E1,2.791639090E0,5.267243981E-1
2.594279277E0,1.487278080E1,7.383718014E0,4.477157116E0
2.595489267E0,1.003888798E1,1.167891598E1,6.052541733E0
2.598383585E0,1.391031146E0,1.031900978E1,2.724601507E0
2.599704883E0,-4.680664539E0,6.943184853E0,-2.729389966E-1
2.602488239E0,-5.310339451E0,6.950367451E0,2.288856745E0
2.604292421E0,-5.092466831E0,1.115458584E1,1.099178028E1
2.606533700E0,-6.493074894E0,1.148259163E1,1.232535076E1
2.607700537E0,-9.600749016E0,9.402029991E0,1.102051067E1
2.610603239E0,-9.658209801E0,7.079654217E0,8.058882713E0
2.611907960E0,-6.452373505E0,7.053318024E0,8.080430984E0
2.614707624E0,-3.354276657E0,7.297526836E0,1.049378586E1
2.616015844E0,-2.142810583E0,6.189011574E0,1.299093819E1
2.618811777E0,-1.685518026E0,5.154716492E0,1.545457172E1
2.620369729E0,-8.643068075E-1,4.821922302E0,1.710178185E1
2.622915431E0,-1.302445769E0,3.699041605E0,1.647450256E1
2.624513537E0,-3.548206806E0,8.810662031E-1,1.320162773E1
2.626409114E0,-1.608903527E0,2.628833532E0,1.243069553E1
2.628208267E0,1.323993564E0,6.840234280E0,1.207395935E1
2.630647460E0,7.158663273E-1,9.193734169E0,8.643068314E0
2.632319114E0,-2.971204281E0,8.202534676E0,2.003946781E0
2.634731498E0,-5.188235283E0,7.666234016E0,-2.961627483E0
2.636479537E0,-3.311181068E0,1.003888798E1,-3.509899616E0
2.638893575E0,7.852981687E-1,1.204762268E1,-3.730166197E0
2.640556921E0,3.100491285E0,1.176989555E1,-5.978321552E0
2.643380739E0,2.844311714E0,1.003409958E1,-8.925583839E0
2.644744383E0,2.217030764E0,9.330204010E0,-1.055842972E1
2.647045729E0,1.139639974E0,1.202846909E1,-7.829039574E0
2.648807998E0,-1.448492050E0,1.398453236E1,-4.019864559E0
2.651281767E0,-5.154716492E0,1.228704357E1,-2.147598982E0
2.652916229E0,-6.998251438E0,9.777919769E0,4.692635238E-1
2.655286114E0,-4.733336926E0,9.315838814E0,5.015852451E0
2.656926806E0,-1.101332754E-1,1.100853920E1,1.032858658E1
2.659355960E0,2.659958124E0,1.034055710E1,1.281616211E1
2.661194883E0,3.287238836E0,5.001487255E0,1.046026707E1
2.663923277E0,6.150704384E0,8.738836050E-1,7.692570210E0
2.665597344E0,1.408748245E1,4.987122059E0,8.169015884E0
2.668008239E0,1.483207989E1,7.402871609E0,8.066065788E0
2.669274267E0,1.172440529E1,1.012747288E1,4.807557106E0
2.672076469E0,6.449979305E0,1.017296314E1,-1.491587639E0
2.673434960E0,3.804386616E0,1.072602367E1,-6.452373505E0
2.676179508E0,2.504334927E0,1.517923832E1,-7.582436562E0
2.678214277E0,5.482721925E-1,1.733402061E1,-8.013393402E0
2.680283123E0,-1.120486379E0,1.586876869E1,-1.109951878E1
2.681571844E0,-9.768342972E-1,1.194467258E1,-1.559582996E1
2.684387200E0,-5.746083856E-1,8.736441612E0,-1.698446655E1
2.686172267E0,-1.762132406E0,8.741230011E0,-1.334288597E1
2.688426354E0,-4.814739704E0,1.046026707E1,-6.864176273E0
2.689632998E0,-8.918401718E0,1.125753593E1,-1.051054597E0
2.692494662E0,-1.251688671E1,1.139640045E1,3.821146011E0
2.693736114E0,-1.431493187E1,1.163821411E1,9.548076630E0
2.696597700E0,-1.360864258E1,9.653421402E0,1.540429401E1
2.697912844E0,-8.348581314E0,3.703830004E0,1.913685417E1
2.700536383E0,2.236184359E0,-3.236960649E0,2.103306198E1
2.702368844E0,1.369483376E1,-7.319074631E0,2.193088722E1
2.704803854E0,1.786553383E1,-6.821080685E0,2.198595428E1
2.706441229E0,1.196382618E1,-3.028665066E0,2.056140327E1
2.708392460E0,1.130063176E0,1.944091797E0,1.748964310E1
2.710075690E0,-8.511386871E0,8.166622162E0,1.564610767E1
2.712649998E0,-1.476025391E1,1.359427738E1,1.516487312E1
2.714204498E0,-1.641464615E1,1.485841560E1,1.262223148E1
2.716660383E0,-1.264856720E1,1.278503704E1,8.202534676E0
2.718327883E0,-3.615244627E0,1.184890461E1,4.807557106E0
2.720699498E0,5.501875401E0,1.217451572E1,2.482787132E0
2.722402421E0,8.429984093E0,9.940725327E0,-8.523358107E-1
2.725271931E0,4.548983097E0,6.979097843E0,-2.858676910E0
2.726699190E0,-2.892195702E0,1.226070690E1,4.862623692E0
2.728796575E0,-4.558559895E0,1.554794598E1,8.901641846E0
2.730500998E0,-7.235277653E0,1.755668068E1,1.272278786E1
2.732922806E0,-7.005434036E0,5.837063789E0,4.982333660E0
2.734653267E0,1.719036818E0,6.057330370E-1,7.038952708E-1
2.737052921E0,1.499727917E1,4.101267338E0,7.900865376E-2
2.738971921E0,2.151908493E1,1.127190113E1,-1.388636947E0
2.741136652E0,1.531091976E1,1.475307083E1,-5.837063789E0
2.742853460E0,4.048594952E0,1.398453236E1,-1.154723454E1
2.745705623E0,-3.241749048E0,1.347217274E1,-1.487278080E1
2.747406152E0,-4.177882195E0,1.627817726E1,-1.298136139E1
2.749772123E0,-1.843535304E0,2.024536896E1,-9.102754593E0
2.751004152E0,-1.197100878E-1,1.957978058E1,-8.238448143E0
2.753840700E0,1.932120800E0,1.295502567E1,-1.114740276E1
2.755020575E0,5.413290024E0,7.304709435E0,-1.223676491E1
2.757943469E0,5.382165432E0,7.189787865E0,-7.000645638E0
2.759123267E0,-1.728613615E0,9.866505623E0,1.264138460E0
2.762009921E0,-1.322317600E1,1.085531044E1,8.202534676E0
2.763242421E0,-2.201468468E1,1.002691650E1,1.429577827E1
2.766148546E0,-2.326206398E1,9.294290543E0,2.129402924E1
2.767830921E0,-1.370919895E1,6.081272125E0,3.083252907E1
2.770161652E0,-9.030928612E0,3.998316765E0,3.257790375E1
2.771318614E0,1.616086125E0,-8.307880163E-1,3.161543274E1
2.774255392E0,1.362061310E1,-4.618414879E0,2.512235832E1
2.775417498E0,2.314474869E1,-5.351040840E0,1.617043877E1
2.778325421E0,2.475844002E1,-4.074931145E0,7.347805023E0
2.779512806E0,1.850478554E1,9.816227108E-2,1.788468719E0
2.782294037E0,8.530540466E0,7.754819393E0,3.543418646E-1
2.783727267E0,-2.633621931E0,1.662533569E1,-2.513911724E-1
2.786566315E0,-1.896925926E1,2.218946075E1,-4.855441093E0
2.788171460E0,-2.345359993E1,1.825818253E1,-1.241393566E1
2.790057729E0,-1.963963699E1,1.493502998E1,-1.826057625E1
2.791813537E0,-1.068532181E1,1.554555130E1,-1.550724411E1
2.794272113E0,-6.775590777E-1,1.628775406E1,-1.039562416E1
2.795914075E0,4.781220913E0,1.241872406E1,-7.575253963E0
2.798382537E0,5.298368454E0,6.447585106E0,-5.228936672E0
2.800083460E0,4.558559895E0,5.681440830E0,1.029506683E0
2.802413460E0,3.459621429E0,9.756371498E0,1.055842972E1
2.804223729E0,3.136404157E-1,1.062546730E1,1.864364815E1
2.807051546E0,-2.001552582E0,5.477933407E0,2.036747360E1
2.808304537E0,3.232172430E-1,-5.099649429E-1,1.840662193E1
2.810693613E0,5.272032261E0,-7.709329724E-1,1.688391113E1
2.812482498E0,7.137115479E0,3.950432777E0,1.559582996E1
2.814828421E0,3.909731388E0,7.795520782E0,1.107078838E1
2.816582575E0,-5.626373887E-1,9.481039047E0,4.592078686E0
2.818987229E0,-2.659958124E0,1.117613316E1,5.147533417E-1
2.820621537E0,-2.944868088E0,1.333330917E1,-1.963245422E-1
2.823012806E0,-3.165134668E0,1.346259594E1,-5.051765442E-1
2.824719344E0,-2.375048161E0,1.026394272E1,-3.330334663E0
2.827594584E0,4.333505034E-1,8.504204750E0,-6.136339188E0
2.829235152E0,7.924807668E-1,1.031900978E1,-6.560112476E0
2.831667853E0,-1.230619669E0,1.068771648E1,-6.555324078E0
2.832841421E0,-6.622362137E0,1.084094524E1,-6.622362137E0
2.835737238E0,-1.073081207E1,1.213860226E1,-4.235342979E0
2.836962883E0,-1.119049835E1,1.572990513E1,4.096478939E0
2.839840892E0,-8.384494781E0,1.154005241E1,5.702988625E0
2.841051537E0,-1.723825216E0,3.351882458E0,4.438849926E0
2.843944161E0,9.090784073E0,-9.888052940E-1,5.233725071E0
2.845154575E0,1.894771194E1,1.149216771E0,8.710105896E0
2.848047353E0,2.065956688E1,5.066130638E0,1.001973438E1
2.849941075E0,1.293108368E1,5.691017628E0,6.313509941E0
2.852093661E0,3.435679436E0,5.741295815E0,1.055842996E0
2.853568421E0,-1.096544385E0,8.939949036E0,-1.177947283E0
2.856161123E0,-2.346317768E0,1.400607967E1,-1.221042871E-1
2.857475998E0,-3.809175014E0,1.596693134E1,8.475474119E-1
2.860263661E0,-5.351040840E0,1.322556973E1,-6.081272364E-1
2.861497190E0,-5.358223438E0,1.002212811E1,-1.802833915E0
2.864184883E0,-5.365406036E0,1.030464458E1,1.460463107E-1
2.865636883E0,-7.479485989E0,1.234210968E1,3.536235809E0
2.868469930E0,-1.047463226E1,1.222718811E1,4.668693542E0
2.870184037E0,-1.085052204E1,1.038604736E1,4.417302132E0
2.871941229E0,-6.598419666E0,1.065180302E1,7.247248650E0
2.873774113E0,-1.292868853E-1,1.081221485E1,1.116655636E1
2.876221998E0,5.125985622E0,6.071695328E0,1.092234802E1
2.877870575E0,1.035492229E1,-5.434837937E-1,7.062894821E0
2.880233690E0,1.719276237E1,-1.958456993E0,3.440467834E0
2.881914767E0,2.100193787E1,4.333505154E0,1.833958507E0
2.884328575E0,1.612255478E1,1.227986050E1,-5.985504389E-2
2.886116883E0,4.690241337E0,1.572751141E1,-4.125209332E0
2.888919546E0,-9.375694275E0,1.485123348E1,-8.149862289E0
2.890293267E0,-1.088882923E1,1.640985870E1,-6.241683960E0
2.892423652E0,-1.031422138E1,1.824381638E1,-4.074931145E0
2.894119883E0,-9.282320023E0,1.969949150E1,-8.762778044E-1
2.896524536E0,-4.388571739E0,1.148977375E1,-3.335123062E0
2.898201613E0,1.829170108E0,7.046135426E0,-1.338358760E0
2.900626460E0,5.137956619E0,5.118803024E0,4.446032524E0
2.902422767E0,1.625662923E0,4.604049683E0,1.021366405E1
2.904756613E0,-6.208165169E0,6.145915985E0,1.625423622E1
2.906522883E0,-1.333091545E1,8.925583839E0,2.208411598E1
2.909305430E0,-1.805228043E1,1.028070164E1,2.684139442E1
2.910912960E0,-1.949358940E1,7.563282967E0,2.903208923E1
2.913384545E0,-1.465730286E1,2.640804529E0,2.802413177E1
2.914552729E0,-1.982398987E0,-3.112462163E-2,2.525882721E1
2.917453276E0,1.370201588E1,1.197100878E0,2.044887733E1
2.918707613E0,2.283589554E1,3.943250179E0,1.255998230E1
2.921556776E0,2.274731064E1,5.190629482E0,1.989581585E0
2.922877536E0,1.839704514E1,5.995080948E0,-7.161057472E0
2.925660507E0,1.294305420E1,9.739612579E0,-1.074278259E1
2.926930306E0,5.396530628E0,1.709699440E1,-9.045293808E0
2.929763507E0,-4.422090530E0,2.223734474E1,-7.936778545E0
2.931555498E0,-1.378581333E1,2.031480217E1,-1.513614273E1
2.933802699E0,-1.425986576E1,1.931881332E1,-1.721191597E1
2.935032267E0,-1.242830086E1,1.761893082E1,-1.783201408E1
2.937871892E0,-9.033323288E0,1.540668774E1,-1.421916389E1
2.939226036E0,-5.973533154E0,1.286643982E1,-7.232883453E0
2.941975776E0,-3.852270603E0,1.138203526E1,6.655880809E-1
2.943193190E0,-2.671929121E0,1.100375080E1,7.673416615E0
2.945959152E0,-1.965639591E0,8.537723541E0,1.167652130E1
2.947349921E0,7.158663273E-1,3.402160645E0,1.255758762E1
2.950182468E0,1.405396366E1,1.460463107E-1,1.518163300E1
2.951756421E0,2.241212273E1,3.677493811E0,1.776018906E1
2.953655460E0,1.977610588E1,7.213729858E0,1.702038002E1
2.955479267E0,8.094796181E0,6.830657482E0,1.142273617E1
2.957990806E0,-2.578555346E0,6.742072105E0,6.057330132E0
2.959552075E0,-7.453149796E0,1.058716011E1,6.586448669E0
2.962108729E0,-9.306262016E0,1.455435181E1,8.815450668E0
2.963696998E0,-1.083136845E1,1.414494324E1,7.220912457E0
2.966050267E0,-9.504981041E0,1.040998936E1,1.204283476E0
2.967802536E0,-4.867412090E0,8.918401718E0,-3.931279182E0
2.970654161E0,-1.814804912E0,9.339780807E0,-5.743690014E0
2.971985806E0,-3.299209833E0,9.916783333E0,-4.513070107E0
2.974147075E0,-6.512228489E0,1.106599998E1,-2.849099934E-1
2.975853729E0,-7.920019150E0,1.285446930E1,5.286397457E0
2.978279729E0,-7.141903877E0,1.338598156E1,9.430760384E0
2.979974998E0,-5.547365189E0,9.150638580E0,9.457097054E0
2.982373229E0,-1.072602391E0,2.257732153E0,7.357381821E0
2.984131767E0,8.226476669E0,-1.012747288E0,7.187393665E0
2.986530036E0,1.781525421E1,2.154781580E0,9.684545517E0
2.988204190E0,1.895010567E1,6.797138691E0,9.765948296E0
2.991068661E0,9.866505623E0,7.527369976E0,4.903325081E0
2.992628383E0,-2.516305923E0,7.079654217E0,-2.439691544E0
2.995135776E0,-2.877830505E0,8.429984093E0,-2.602497339E0
2.996354460E0,-1.221042871E-1,1.209550667E1,-1.209071875E0
2.999204391E0,1.980004787E0,1.329739666E1,-1.723825216E0
3.000506729E0,2.391807556E0,1.088404083E1,-5.602431774E0
3.003308084E0,3.603273630E0,8.293514252E0,-1.004367638E1
3.004612652E0,4.108449936E0,8.317456245E0,-1.093431950E1
3.007411660E0,-2.705447972E-1,9.765948296E0,-7.311892033E0
3.008650344E0,-3.507505417E0,9.763554573E0,-4.740519524E0
3.011515045E0,-4.242525578E0,1.022084713E1,-2.085349798E0
3.013240806E0,-2.753331900E0,1.029746151E1,1.699883193E-1
3.015552314E0,-8.379706144E-1,7.694964409E0,1.187524080E0
3.016755229E0,2.499546528E0,2.712630510E0,7.829039693E-1
3.019620314E0,8.532935143E0,7.565677166E-1,1.604115129E0
3.021103806E0,1.361821938E1,4.857835293E0,5.353435040E0
3.023724045E0,1.221042824E1,9.746794701E0,7.754819393E0
3.024992190E0,4.197035789E0,9.888052940E0,6.057330132E0
3.027627459E0,-3.380612850E0,7.271190643E0,3.696647406E0
3.029304806E0,-5.018246651E0,7.192182064E0,4.958391666E0
3.031930891E0,-2.918531895E0,9.902418137E0,8.983044624E0
3.033710152E0,-1.704671621E0,1.067335129E1,1.080263805E1
3.035495806E0,-1.556231141E0,6.710947514E0,7.663839817E0
3.037217306E0,7.924807668E-1,2.339135170E0,3.224989653E0
3.039975075E0,5.224148273E0,3.555389643E0,2.683900118E0
3.041306459E0,6.888118267E0,8.300697327E0,4.259284973E0
3.043772613E0,3.416525841E0,1.104445267E1,3.272873640E0
3.045418998E0,-1.297657371E0,1.152568722E1,1.005564705E-1
3.047963652E0,-2.422932148E0,1.194467258E1,-2.461239338E0
3.049555767E0,-3.615244627E-1,1.253604031E1,-4.110844135E0
3.052404276E0,6.536170840E-1,1.206677628E1,-4.759673119E0
3.053667998E0,7.445967197E-1,1.024000072E1,-4.587290287E0
3.056028536E0,2.173935175E0,9.667786598E0,-3.306392431E0
3.057753421E0,2.863465309E0,1.228464890E1,2.873042040E-2
3.060168613E0,-4.661510944E0,1.440591145E1,3.062183857E0
3.061884729E0,-1.075235939E1,1.213142014E1,4.357447147E0
3.064211113E0,-1.073320580E1,1.046026707E1,8.844181061E0
3.066171767E0,-5.360617638E0,9.284713745E0,1.430056667E1
3.068424652E0,-3.782838583E-1,7.422025204E0,1.739866447E1
3.070213998E0,1.628057212E-1,4.232948780E0,1.768836212E1
3.072943276E0,-1.498770237E0,7.493851185E-1,1.628296661E1
3.074509267E0,-1.903390408E0,8.810662031E-1,1.672110558E1
3.077014660E0,-2.250549555E0,5.176264286E0,1.945767784E1
3.078308036E0,-5.700594425E0,8.851364136E0,1.981441307E1
3.081082199E0,-1.100135708E1,8.951920509E0,1.603157425E1
3.082305113E0,-1.206677628E1,7.374141216E0,1.125753593E1
3.085184814E0,-6.169857979E0,5.767632008E0,7.199364662E0
3.086455690E0,2.145204782E0,4.862623692E0,3.517082214E0
3.089287968E0,7.453149796E0,4.917690277E0,-4.908113480E-1
3.090578921E0,1.004128170E1,5.561730385E0,-5.884947777E0
3.093391583E0,1.135809326E1,7.675810814E0,-1.090319443E1
3.095245806E0,9.691728592E0,1.070208168E1,-1.592144108E1
3.097437237E0,8.049305916E0,1.130542088E1,-1.688151550E1
3.098632729E0,3.550601006E0,1.303882217E1,-1.627338982E1
3.101505622E0,-1.410184860E0,1.505713463E1,-1.278264332E1
3.102770575E0,-4.884171486E0,1.511698914E1,-8.908824921E0
3.105609391E0,-6.713341713E0,1.208592987E1,-5.822698593E0
3.106827921E0,-7.826645374E0,8.513781548E0,-2.185906172E0
3.109656536E0,-8.226476669E0,6.742072105E0,2.944868088E0
3.110972690E0,-7.659051418E0,6.368576527E0,8.327033043E0
3.113816160E0,-6.174646378E0,5.736507416E0,1.662054825E1
3.115376190E0,-5.006275654E0,2.703053713E0,1.999158478E1
3.117558498E0,-4.223371983E0,-4.764461517E-1,2.208172226E1
3.119155229E0,-3.332728863E0,3.112462163E-1,2.555570984E1
3.121558998E0,-1.774103403E0,4.173093796E0,2.888843727E1
3.123233959E0,-4.788403511E-1,7.019799232E0,2.942952728E1
3.126045767E0,3.663128614E-1,7.228095055E0,2.492603302E1
3.127305690E0,2.545036316E0,5.451597214E0,1.754471016E1
3.129799998E0,7.824251175E0,5.118803024E0,1.120007515E1
3.131430229E0,1.457829380E1,6.969521046E0,5.956773758E0
3.134276660E0,1.784638023E1,9.045293808E0,-1.819593310E-1
3.135584575E0,1.439154625E1,1.024478912E1,-6.655880928E0
3.138132267E0,6.138733387E0,1.286883450E1,-1.007001209E1
3.139721152E0,-3.548206806E0,1.759498787E1,-9.861717224E0
3.142039113E0,-1.207156467E1,2.101390839E1,-7.936778545E0
3.143719767E0,-1.684320831E1,2.049915504E1,-6.241683960E0
3.146078844E0,-1.527500725E1,1.627099419E1,-6.193799973E0
3.147856267E0,-7.651868820E0,1.075475407E1,-6.263231754E0
3.150302998E0,2.743755102E0,6.641515732E0,-4.948814869E0
3.152030959E0,1.054406452E1,4.958391666E0,-2.329558372E0
3.154817506E0,1.263659668E1,4.254496574E0,4.668693244E-1
3.156497767E0,6.708553314E0,3.926490784E0,4.723760128E0
3.158895045E0,3.562572241E0,4.647145271E0,6.995857239E0
3.160067382E0,-1.783680320E0,7.084442616E0,1.215775585E1
3.162962506E0,-5.142745018E0,9.435548782E0,1.619198608E1
3.164236152E0,-4.905719280E0,8.283937454E0,1.497573185E1
3.167065083E0,-2.264914751E0,5.066130638E0,1.048181534E1
3.168323729E0,2.758120298E0,3.131615877E0,5.468356609E0
3.171168544E0,7.113173485E0,4.302380562E0,2.126051188E0
3.172630998E0,7.005434036E0,7.905653954E0,5.027823448E-1
3.175271775E0,1.185129881E0,1.203325748E1,9.145850539E-1
3.177078190E0,-6.727706909E0,1.368286228E1,2.054224968E0
3.179309698E0,-1.163342571E1,1.286883450E1,3.505111217E0
3.180858267E0,-1.110909557E1,1.232295609E1,6.406883717E0
3.183377583E0,-6.643909931E0,1.260307789E1,9.332598686E0
3.184595806E0,-1.891419291E-1,1.075475407E1,8.310274124E0
3.187480814E0,7.117961884E0,5.456385612E0,2.602497339E0
3.188701652E0,1.447294903E1,1.041477680E0,-2.825158119E0
3.191403882E0,1.872026253E1,1.750161409E0,-3.986345768E0
3.192827959E0,1.633803177E1,6.823474884E0,-1.577778935E0
3.195686967E0,7.704541206E0,1.178186703E1,3.447650373E-1
3.197395306E0,-5.073313236E0,1.418803883E1,-1.786074519E0
3.199166421E0,-7.031770229E0,1.458068848E1,-2.442085743E0
3.201048459E0,-7.886500359E0,1.561498356E1,-2.094926596E0
3.203428113E0,-6.009446144E0,1.547851372E1,-1.470039845E0
3.205140075E0,-1.496376038E0,1.243787766E1,-3.572149038E0
3.207495536E0,4.441244125E0,8.233659744E0,-7.254431248E0
3.209161036E0,8.616731644E0,6.603208065E0,-8.619126320E0
3.211545075E0,8.063671112E0,8.561665535E0,-6.157886982E0
3.213335844E0,2.813186884E0,1.142034245E1,-1.335964561E0
3.216150044E0,-4.266467571E0,1.217212105E1,3.703830004E0
3.217521190E0,-1.060870743E1,1.005564690E1,1.125035381E1
3.219781767E0,-8.975862503E0,8.860940933E0,1.646253014E1
3.221385190E0,-3.332728863E0,7.364564419E0,1.959414673E1
3.223910190E0,3.033453465E0,3.679888010E0,1.858379364E1
3.225556805E0,7.759607792E0,-8.259995580E-1,1.494939518E1
3.227824652E0,1.052730465E1,-1.738190413E0,1.285925770E1
3.229531575E0,1.028788471E1,1.604115129E0,1.301488018E1
3.231990921E0,5.549759388E0,5.470750809E0,1.234210968E1
3.233744229E0,-2.822763920E0,7.831433773E0,9.804255486E0
3.236505352E0,-1.013226128E1,9.648633003E0,7.218518257E0
3.238144767E0,-1.189439392E1,1.217930412E1,5.528211594E0
3.240571737E0,-9.428366661E0,1.530134296E1,4.510675907E0
3.242078075E0,-6.641515732E0,1.579694271E1,1.678335428E0
3.244639352E0,-4.458003521E0,1.311543655E1,-3.160346270E0
3.246000229E0,-7.972691655E-1,1.069489861E1,-6.663063526E0
3.248742083E0,4.570530891E0,1.085531044E1,-7.256825447E0
3.249980652E0,7.726089001E0,1.239717674E1,-5.928043365E0
3.252844583E0,5.544970989E0,1.233492756E1,-3.964797974E0
3.254167690E0,5.865794420E-1,1.011789608E1,-1.489193439E0
3.256946929E0,-1.857900500E0,8.908824921E0,2.580949545E0
3.258665344E0,-6.751648784E-1,1.054645824E1,9.145850182E0
3.260983929E0,-3.375824392E-1,1.055842972E1,9.775525093E0
3.262395267E0,-1.915361360E-2,8.829815865E0,8.101978302E0
3.265051429E0,2.051830769E0,6.478709698E0,5.413290024E0
3.266433844E0,7.022193432E0,5.803544998E0,3.933673382E0
3.269153621E0,1.114740276E1,7.292738438E0,3.531447411E0
3.270402844E0,9.995792389E0,8.573636055E0,1.994369984E0
3.273079959E0,3.931279182E0,9.545681953E0,6.153098345E-1
3.274529498E0,-2.327163935E0,1.110909557E1,1.328781962E0
3.277358736E0,-6.268020153E0,1.267969227E1,3.325546265E0
3.279290036E0,-1.101811600E1,1.504516315E1,7.383718014E0
3.281025305E0,-1.331655025E1,1.408030033E1,8.295908928E0
3.282917844E0,-1.207635307E1,9.378087997E0,6.636727333E0
3.285125344E0,-6.739677906E0,4.668693542E0,6.251260757E0
3.286756382E0,-6.584054828E-1,3.359065056E0,9.021351814E0
3.289172613E0,1.731007814E0,4.477157116E0,1.313459015E1
3.290860229E0,-1.118092179E0,5.755661011E0,1.635958099E1
3.293730121E0,-7.486668587E0,5.339069843E0,1.811213493E1
3.294980613E0,-1.300530338E1,4.443638325E0,1.943612862E1
3.297832659E0,-1.436760426E1,6.509834290E0,2.267308998E1
3.299195267E0,-1.130063248E1,9.696516991E0,2.509841728E1
3.301524652E0,-6.052541733E0,8.506598473E0,2.118629074E1
3.303357805E0,-7.062895298E-1,4.101267338E0,1.350569153E1
3.305696882E0,4.910507679E0,1.762132406E0,7.601590633E0
3.307286075E0,9.009381294E0,4.771644115E0,5.643133640E0
3.309694690E0,7.860164165E0,9.619902611E0,5.128379822E0
3.311387959E0,1.393425345E0,1.123359394E1,2.961627483E0
3.314047421E0,-4.252102375E0,1.055364132E1,6.464344859E-1
3.315527267E0,-4.192247391E0,1.153047562E1,8.331822157E-1
3.318369082E0,3.112462163E-1,1.403720474E1,1.747767210E0
3.319948152E0,5.322310448E0,1.332373238E1,-1.508347034E0
3.322440582E0,6.050147533E0,1.122641182E1,-3.651157618E0
3.323666459E0,7.819462776E0,6.457161903E0,-7.280767441E0
3.326507313E0,1.089361763E1,4.517858505E0,-8.109161377E0
3.327744536E0,1.338837624E1,6.392518520E0,-7.577648163E0
3.330609275E0,7.079654217E0,1.261983681E1,-6.423643112E0
3.331849921E0,-3.110068083E0,1.516726780E1,-3.991134167E0
3.334711967E0,-1.168849277E1,1.434605694E1,-8.858546019E-1
3.336013267E0,-1.578976059E1,1.318247414E1,4.553771496E0
3.338813775E0,-1.542344761E1,1.318008041E1,1.091516590E1
3.340642536E0,-1.192551899E1,1.184650993E1,1.350808620E1
3.342858505E0,-7.208941460E0,8.358158112E0,1.322796440E1
3.344046998E0,-8.355764151E-1,3.208230257E0,1.248097324E1
3.346926621E0,8.434772491E0,-7.374141216E-1,1.218169785E1
3.348164921E0,1.676180649E1,-1.288080573E0,1.287841129E1
3.351029890E0,1.763090134E1,6.224924326E-1,1.324472427E1
3.352321498E0,1.070447540E1,3.739742994E0,1.238520527E1
3.355043190E0,2.676717520E0,7.486668587E0,9.751583099E0
3.356406728E0,-1.790862918E0,1.143470764E1,6.421248913E0
3.359235659E0,-3.591302633E0,1.439154625E1,3.363853455E0
3.360823113E0,-3.634398222E0,1.477701283E1,-2.968810201E-1
3.362662882E0,-8.858546019E-1,1.317768574E1,-5.116408825E0
3.364476382E0,4.146757126E0,1.181059742E1,-9.780313492E0
3.367094844E0,8.449137688E0,1.094150162E1,-1.423113537E1
3.368639690E0,8.832210541E0,1.122401714E1,-1.682884407E1
3.371323075E0,4.975151062E0,1.280419064E1,-1.587834549E1
3.372722498E0,-2.197877169E0,1.474110031E1,-1.099656868E1
3.375070228E0,-9.248801231E0,1.553836918E1,-3.866635799E0
3.377009690E0,-1.324951267E1,1.464293766E1,2.425326347E0
3.379689928E0,-1.320881081E1,1.227507210E1,6.495469093E0
3.381132575E0,-9.349357605E0,8.051700592E0,1.013704967E1
3.383345767E0,-7.165845871E0,5.798756599E0,1.385045719E1
3.385484382E0,-4.613626480E0,2.966415882E0,1.765484428E1
3.387504498E0,-1.376665950E0,3.806780577E-1,2.022142792E1
3.389371690E0,-3.758896589E-1,-1.795651317E-1,2.225649834E1
3.391647613E0,-4.149151325E0,2.279279947E0,2.457648087E1
3.393262844E0,-1.016099167E1,5.762843609E0,2.617820168E1
3.395864190E0,-1.384566879E1,8.116343498E0,2.592202187E1
3.397453690E0,-1.318726254E1,8.446743965E0,2.421735001E1
3.400231390E0,-9.943120003E0,6.995857239E0,2.112643623E1
3.402296536E0,-5.482721806E0,5.741295815E0,1.738669205E1
3.404309736E0,-3.639186621E-1,6.222530365E0,1.397734928E1
3.405489459E0,5.300762653E0,7.314286232E0,9.481039047E0
3.408377582E0,9.229647636E0,7.788338184E0,3.035847664E0
3.409588421E0,8.130708694E0,8.362946510E0,-2.250549555E0
3.412480005E0,2.633621931E0,1.084573364E1,-2.877830505E0
3.413701536E0,-2.691082716E0,1.395580196E1,-6.536170840E-1
3.416583005E0,-5.030217648E0,1.522233486E1,3.447650373E-1
3.418018075E0,-4.426878929E0,1.353921032E1,-1.826775908E0
3.420686390E0,-1.781286120E0,1.034534550E1,-5.932831764E0
3.422438075E0,5.125985622E0,8.973467827E0,-7.852981567E0
3.424724967E0,7.860164165E0,9.351752281E0,-7.505822182E0
3.426009344E0,1.246900272E1,9.627084732E0,-7.627926826E0
3.428793274E0,1.336922264E1,8.942343712E0,-9.208099365E0
3.430055075E0,9.686940193E0,9.244012833E0,-9.112331390E0
3.432896313E0,4.070142746E0,1.181538582E1,-4.685452938E0
3.434172305E0,-7.158663273E-1,1.397256088E1,1.642422318E0
3.436901690E0,-4.455609322E0,1.250730991E1,7.829039574E0
3.438260959E0,-3.830722809E0,1.109951878E1,1.009156036E1
3.441103197E0,2.154781520E-1,9.545681953E0,1.000536919E1
3.442687575E0,5.731719017E0,5.803544998E0,6.720524311E0
3.444604805E0,9.720458984E0,1.606509328E0,3.603273630E0
3.446384690E0,1.106360626E1,5.865794420E-1,4.027047157E0
3.448890767E0,8.829815865E0,3.191470861E0,6.964732647E0
3.450554690E0,1.177947283E0,7.007828236E0,9.528923035E0
3.452906651E0,-1.094868469E1,9.979032516E0,1.108754826E1
3.454631036E0,-2.077688217E1,1.098220348E1,1.197340298E1
3.456943805E0,-2.208890533E1,1.147062016E1,1.419282722E1
3.458732575E0,-1.463096619E1,1.112585545E1,1.641225243E1
3.461578659E0,-3.033453465E0,8.180987358E0,1.385763931E1
3.462894921E0,6.847416878E0,4.338293552E0,7.424419403E0
3.465093036E0,1.303403378E1,1.893813491E0,1.503558636E0
3.466812228E0,1.662054825E1,1.086967587E0,-2.157175779E0
3.469272651E0,1.696531296E1,1.781286120E0,-3.260902643E0
3.471530882E0,1.139400578E1,4.098873138E0,-2.243366957E0
3.473309921E0,-4.309563041E-1,8.022970200E0,4.548983276E-1
3.475038190E0,-1.243787766E1,1.237562847E1,2.822763920E0
3.477431882E0,-1.973540497E1,1.604594040E1,3.469198227E0
3.479162998E0,-2.123896408E1,1.785835075E1,2.774879694E0
3.481990005E0,-1.721191597E1,1.651999092E1,-6.943184882E-2
3.483549459E0,-3.761290789E0,9.392453194E0,-4.165910721E0
3.486055928E0,1.924938202E0,6.809109688E0,-4.235342979E0
3.487278998E0,1.382890892E1,2.906560898E0,-3.387795448E0
3.490123389E0,2.281913567E1,1.539471745E0,-2.719813108E0
3.491335805E0,2.319502640E1,3.857059002E0,-1.144428372E0
3.494225428E0,6.880935669E0,1.087685871E1,5.841852188E0
3.495692767E0,-4.718971729E0,1.377623653E1,1.028788471E1
3.498327351E0,-1.039801788E1,1.530373764E1,1.425986576E1
3.499597421E0,-9.773131371E0,1.476264763E1,1.531331444E1
3.502428812E0,-5.161899090E0,1.260307789E1,1.301727486E1
3.504403305E0,7.015010715E-1,8.621520042E0,9.014169693E0
3.506466428E0,6.904877663E0,3.301604033E0,5.006275654E0
3.507651344E0,1.171722317E1,1.292868853E-1,3.634398222E0
3.510534005E0,1.162384892E1,2.260126352E0,6.117185116E0
3.511772228E0,3.227383852E0,8.200140953E0,1.049857426E1
3.514636274E0,-1.129823780E1,1.311783123E1,1.369962215E1
3.515866344E0,-2.359964561E1,1.484883881E1,1.521036339E1
3.518738697E0,-2.663549423E1,1.431014347E1,1.606509399E1
3.520035690E0,-2.057337570E1,1.303642845E1,1.613213158E1
3.522840466E0,-1.042914295E1,1.209311295E1,1.494460678E1
3.524568767E0,4.220977783E0,6.485892296E0,7.958326340E0
3.526304113E0,8.858546257E0,3.253720045E0,4.220977783E0
3.528132575E0,1.810016441E1,-2.003946781E0,-2.865859509E0
3.530633613E0,2.436100197E1,-2.348711967E0,-7.129932880E0
3.532254113E0,2.223255730E1,3.758896589E0,-6.833051682E0
3.534700728E0,1.155202293E1,1.297657299E1,-3.670311213E0
3.536340190E0,-1.886630893E0,1.868435097E1,-3.028665066E0
3.538751036E0,-1.192073059E1,1.883757973E1,-4.991910458E0
3.540625344E0,-1.465251446E1,1.653675079E1,-6.514622688E0
3.543308197E0,-8.939949036E0,1.544260120E1,-6.337451935E0
3.544603767E0,7.936778545E0,1.488954067E1,-5.631162167E0
3.546926459E0,1.753992081E1,1.011550236E1,-8.461109161E0
3.548667113E0,2.284786606E1,2.360682964E0,-1.270363426E1
3.551182613E0,2.308010483E1,-1.340752959E0,-1.197819138E1
3.552898382E0,1.734599113E1,2.224213362E0,-4.436455727E0
3.555132844E0,4.718971729E0,8.772355080E0,5.813121796E0
3.557003805E0,-1.094868469E1,1.219127464E1,1.293347740E1
3.559291382E0,-2.301785469E1,1.137245846E1,1.629972458E1
3.560987459E0,-2.703293228E1,9.552865028E0,1.906981659E1
3.563842735E0,-2.221579742E1,8.192957878E0,2.099475479E1
3.565520921E0,-1.214099693E1,6.426037312E0,1.966836739E1
3.567933274E0,-1.987187386E0,3.215412855E0,1.499249077E1
3.569144651E0,6.904877663E0,-1.419761658E0,7.941566944E0
3.572000197E0,1.458547688E1,-3.986345768E0,1.735796213E0
3.573376267E0,1.774342918E1,-1.252167463E0,-4.548983276E-2
3.576101389E0,1.212184334E1,6.203376770E0,2.707842112E0
3.577295190E0,-2.920926213E-1,1.347935581E1,5.276820660E0
3.580203043E0,-1.210508347E1,1.675462341E1,4.271255970E0
3.581463651E0,-1.708023453E1,1.743218231E1,1.369483352E0
3.584305581E0,-1.403481007E1,1.742739487E1,-1.264138460E0
3.586122651E0,1.173158810E-1,1.468842697E1,-6.090848923E0
3.588351966E0,5.171475887E0,1.313698483E1,-7.414842606E0
3.589531882E0,1.284968090E1,9.188945770E0,-8.698134422E0
3.592419812E0,1.674504662E1,4.390965939E0,-9.255983353E0
3.593625267E0,1.634282112E1,2.537853718E0,-7.750030994E0
3.596522543E0,1.007480049E1,6.344634533E0,-2.123656988E0
3.597727613E0,-1.405396342E0,1.184411621E1,4.793191910E0
3.600474305E0,-1.716163826E1,1.400129128E1,1.086967564E1
3.602301998E0,-1.974019241E1,1.289995861E1,1.347217274E1
3.604728004E0,-1.501164436E1,1.141315937E1,1.487278080E1
3.606370651E0,-6.569689274E0,9.318233490E0,1.423352909E1
3.608216228E0,1.819593310E0,6.057330132E0,1.157357121E1
3.609984651E0,9.950302124E0,1.517923832E0,6.770802498E0
3.612451921E0,1.748006630E1,-1.853112102E0,1.927332401E0
3.614120536E0,2.095405388E1,-9.552865028E-1,-1.460463107E-1
3.616571536E0,1.578497219E1,6.110002518E0,2.559401512E0
3.618227267E0,2.389413357E0,1.517923832E1,7.256825447E0
3.620619574E0,-1.274433517E1,1.917755508E1,8.116343498E0
3.622444498E0,-2.271379089E1,1.814804840E1,6.366182327E0
3.625206850E0,-2.373611641E1,1.541387081E1,6.191405773E0
3.626562382E0,-1.555512810E1,1.305318737E1,7.153874874E0
3.629059882E0,-3.069366693E0,1.077869606E1,7.850587368E0
3.630660844E0,7.237671852E0,7.565677166E0,7.522581577E0
3.632984382E0,1.278503704E1,3.258508444E0,6.009446144E0
3.634759613E0,1.454238129E1,1.029506698E-1,4.922478676E0
3.637086459E0,1.238999367E1,1.546654344E0,7.340622425E0
3.638887536E0,5.415684223E0,7.412448406E0,1.319923401E1
3.641206382E0,-4.292803764E0,1.355597019E1,1.839225769E1
3.642995074E0,-1.285925770E1,1.609861183E1,1.976413536E1
3.645750504E0,-1.604115105E1,1.256477070E1,1.567962646E1
3.647589921E0,-1.076193619E1,9.622296333E0,1.202128696E1
3.649829466E0,-3.069366693E0,9.916783333E0,1.051772785E1
3.651160497E0,3.394978046E0,1.053688145E1,8.209717751E0
3.653898658E0,7.213729858E0,7.666234016E0,1.929726601E0
3.655161997E0,7.991845131E0,4.024652958E0,-4.331110954E0
3.658002427E0,5.999869347E0,4.357447147E0,-5.006275654E0
3.659252497E0,1.561019540E0,9.454702377E0,-4.429273009E-1
3.662102382E0,-4.960785866E0,1.475785923E1,4.211400986E0
3.663448921E0,-1.125035381E1,1.498770237E1,3.622427225E0
3.666208773E0,-1.396537876E1,1.051293945E1,-8.188169599E-1
3.667947805E0,-1.055603504E1,6.761225700E0,-3.253720045E0
3.670247620E0,-1.663970232E0,7.201758862E0,-2.078166962E0
3.671415344E0,7.333439827E0,9.296685219E0,-8.092401624E-1
3.674315312E0,1.146343803E1,8.643068314E0,-2.923320293E0
3.675600574E0,1.129823780E1,4.446032524E0,-7.522581577E0
3.678418735E0,1.027112484E1,2.331952572E0,-8.195352554E0
3.679691651E0,8.382100105E0,6.042964935E0,-1.831564307E0
3.682349190E0,2.882618904E0,1.196382618E1,6.593631268E0
3.683933190E0,-6.299144745E0,1.550485039E1,1.229662037E1
3.686626350E0,-1.467166805E1,1.476504230E1,1.413057804E1
3.688264574E0,-1.653914452E1,9.595960617E0,1.538992882E1
3.690224344E0,-1.360145950E1,7.996633530E0,1.630690765E1
3.691880997E0,-4.249708176E0,5.403713226E0,1.795890617E1
3.694358728E0,5.257667065E0,3.282450438E0,1.892855835E1
3.696250728E0,1.171243477E1,1.043871999E0,1.759738159E1
3.698452151E0,1.524867058E1,-1.175553083E0,1.287122822E1
3.700443728E0,1.589510536E1,-6.129156351E-1,7.015010834E0
3.702503074E0,9.385271072E0,8.753201485E0,3.620033026E0
3.704273421E0,3.167528868E0,1.573948193E1,1.762132406E0
3.707093158E0,-1.197100878E0,1.861970711E1,-2.655169725E0
3.708459574E0,-2.394201756E0,1.753752708E1,-8.868123055E0
3.710586421E0,-2.537853718E-1,1.613452530E1,-1.431732655E1
3.712611690E0,4.402936935E0,1.604354477E1,-1.791820526E1
3.714688690E0,9.296685219E0,1.631648445E1,-2.042972374E1
3.716380844E0,1.114979744E1,1.548809052E1,-2.121262741E1
3.718784613E0,8.621520042E0,1.341710663E1,-1.885433769E1
3.720595497E0,3.763684988E0,1.139400578E1,-1.322078133E1
3.722931805E0,-1.628057122E0,1.082179165E1,-5.346252441E0
3.724634690E0,-8.485051155E0,1.131739140E1,3.624821424E0
3.727482235E0,-1.561498356E1,1.129105568E1,1.171482849E1
3.729070844E0,-1.988624001E1,1.045787334E1,1.850478554E1
3.731511696E0,-1.912727737E1,8.113949776E0,2.449986649E1
3.732761113E0,-1.354399872E1,4.146757126E0,2.860352707E1
3.735579658E0,-6.876147270E0,-3.854664862E-1,3.049255371E1
3.736805959E0,-1.649604917E0,-2.892195702E0,3.040396690E1
3.739682619E0,1.544260144E0,-2.379836559E0,2.833058929E1
3.740899728E0,2.858676910E0,-4.046200812E-1,2.459324074E1
3.743785812E0,1.989581585E0,1.989581585E0,2.087504387E1
3.745014959E0,-1.168370485E0,5.669469833E0,1.923262215E1
3.747889350E0,-5.216965675E0,1.040998936E1,1.871547508E1
3.749652459E0,-9.349357605E0,1.534204483E1,1.355118179E1
3.751926542E0,-9.552865028E0,1.550485039E1,1.022324085E1
3.753080651E0,-7.189787865E0,1.400129128E1,2.355894566E0
3.755995158E0,-1.726219416E0,1.211226654E1,-4.098873138E0
3.757246690E0,4.441244125E0,1.116655636E1,-7.304709435E0
3.760097920E0,9.339780807E0,1.063264942E1,-8.901641846E0
3.761278690E0,1.118331623E1,9.437943459E0,-1.081939793E1
3.764039997E0,7.094019413E0,8.544905663E0,-1.178426075E1
3.765474574E0,2.339135170E0,1.101572227E1,-9.897629738E0
3.768306465E0,-3.531447411E0,1.519120979E1,-5.951985359E0
3.769951344E0,-9.263166428E0,1.710896492E1,-2.224213362E0
3.771782459E0,-1.281616211E1,1.586876869E1,8.643068075E-1
3.773579690E0,-1.216733265E1,1.346738434E1,4.824316502E0
3.776034805E0,-6.777985096E0,1.028070164E1,7.659051418E0
3.777684420E0,1.867477298E0,7.527369976E0,8.619126320E0
3.780112036E0,9.959878922E0,5.796362400E0,9.181763649E0
3.781791036E0,1.436521053E1,3.560178041E0,8.851364136E0
3.784160920E0,1.534443855E1,1.142034173E0,8.240841866E0
3.785971497E0,1.338837624E1,1.675941229E0,9.495404243E0
3.788790119E0,6.797138691E0,6.311115742E0,1.390552330E1
3.790217997E0,-4.027047157E0,1.134612179E1,1.828451920E1
3.792386613E0,-1.401565647E1,1.324951267E1,1.937388039E1
3.794117382E0,-1.747048950E1,1.167173290E1,1.719036865E1
3.796545420E0,-1.282573891E1,8.777143478E0,1.335006905E1
3.798232151E0,-3.234566450E0,7.003039837E0,9.634267807E0
3.800608074E0,6.560112476E0,6.586448669E0,5.947196960E0
3.802365959E0,1.328063679E1,6.186617374E0,7.565677166E-1
3.804758382E0,1.566047287E1,4.728548527E0,-5.619191170E0
3.806453305E0,1.438675785E1,4.185064793E0,-1.046505547E1
3.809324888E0,1.075954247E1,7.223306656E0,-1.125753593E1
3.810861228E0,2.171540976E0,1.804509735E1,-6.936002254E0
3.813395888E0,-6.042964935E0,2.322854424E1,-4.745307922E0
3.814557997E0,-1.394861889E1,2.272336769E1,-5.219359875E0
3.817464273E0,-1.632366753E1,1.890461731E1,-6.052541733E0
3.819133920E0,-1.077869606E1,1.615367889E1,-4.309563160E0
3.821567157E0,-4.572925270E-1,1.363497829E1,-1.862688899E0
3.822959959E0,9.006986618E0,8.192957878E0,-1.508347034E0
3.825669927E0,1.523191166E1,1.127668977E0,-2.480392933E0
3.826931344E0,1.776497650E1,-1.781286120E0,-8.331822157E-1
3.829773080E0,1.474828243E1,2.408566952E0,5.255272865E0
3.831608959E0,4.165910721E0,1.030703831E1,1.281376743E1
3.833817888E0,-1.145386124E1,1.606269836E1,1.785116768E1
3.835005613E0,-2.401623726E1,1.661097145E1,1.925895882E1
3.837886427E0,-2.557486343E1,1.313459015E1,1.888546371E1
3.839231151E0,-1.542344761E1,8.310274124E0,1.806425095E1
3.841990119E0,2.944868207E-1,3.912125587E0,1.612973595E1
3.843196074E0,1.345541382E1,1.604115129E0,1.328063679E1
3.845901382E0,1.918234444E1,7.374141216E-1,8.738836288E0
3.847373805E0,1.772427559E1,-1.604115069E-1,2.664746523E0
3.850198119E0,1.210747814E1,6.224924326E-1,-1.994369984E0
3.851927113E0,-1.029506698E-1,9.344569206E0,-5.913678408E-1
3.853931074E0,-4.690241337E0,1.363497829E1,1.810016513E0
3.855598267E0,-1.303403378E1,1.969470406E1,4.611232281E0
3.857968959E0,-1.865322495E1,2.012565994E1,2.533065319E0
3.859566536E0,-2.029804230E1,1.725261688E1,-1.048660398E0
3.862019651E0,-1.656787491E1,1.363258457E1,-3.703830004E0
3.863726690E0,-7.967903137E0,1.137006378E1,-4.163516521E0
3.866061113E0,6.002263546E0,8.506598473E0,-2.557007313E0
3.867805882E0,1.127190113E1,5.006275654E0,-2.705447912E0
3.870671542E0,1.244745445E1,2.643198729E0,-2.190694571E0
3.871951074E0,8.468291283E0,4.625597477E0,2.267308950E0
3.874277767E0,-8.212111592E-1,9.354146004E0,1.003649330E1
3.875993305E0,-1.208353615E1,1.278743172E1,1.714966583E1
3.878438920E0,-1.910812378E1,1.338358784E1,2.192609978E1
3.880118651E0,-1.750640297E1,1.110909557E1,2.296039391E1
3.882498497E0,-8.961497307E0,7.352593422E0,2.026931190E1
3.884277074E0,1.817199111E0,5.157110691E0,1.718557930E1
3.886765805E0,1.083376312E1,3.804386616E0,1.449928570E1
3.888495920E0,1.714727211E1,8.331822157E-1,1.057279491E1
3.891217888E0,2.068829727E1,-1.826775908E0,6.210559368E0
3.892856651E0,1.979525948E1,-1.165976286E0,3.062183857E0
3.895302119E0,1.408987713E1,4.153939724E0,1.769315004E0
3.896455228E0,5.983109951E0,1.160469532E1,1.532289088E-1
3.899370426E0,-1.606509328E0,1.675701714E1,-3.311181068E0
3.900603074E0,-7.031770229E0,1.834437370E1,-7.309497833E0
3.903452234E0,-9.244012833E0,1.768357468E1,-1.071405220E1
3.904764536E0,-7.838616371E0,1.701319695E1,-1.288080502E1
3.907520272E0,-3.792415380E0,1.555991650E1,-1.430056667E1
3.908786497E0,2.784456491E0,1.090798283E1,-1.677617073E1
3.911624003E0,1.074038887E1,4.922478676E0,-1.985990334E1
3.913374151E0,1.572990513E1,5.578489780E0,-1.642182922E1
3.915661965E0,1.301727486E1,9.421183586E0,-1.184172153E1
3.916830074E0,2.585737705E-1,1.714727211E1,-8.044517636E-1
3.919730734E0,-1.620395660E1,1.862210083E1,7.094019413E0
3.920936074E0,-2.681984711E1,1.438196945E1,1.186087513E1
3.923833888E0,-2.304179764E1,7.208941460E0,2.004904556E1
3.925083767E0,-1.115697956E1,5.353435040E0,2.669295502E1
3.927762613E0,6.631938815E-1,2.726995707E0,3.157952118E1
3.929186036E0,7.857769966E0,-1.783680320E0,3.192907333E1
3.932040080E0,1.016338634E1,-5.291185856E0,2.856282616E1
3.933671228E0,8.145073891E0,-4.527435303E0,2.559641075E1
3.935586382E0,2.961627483E0,5.410895944E-1,2.508165741E1
3.937367959E0,-1.862688899E0,5.643133640E0,2.403778458E1
3.939751767E0,-3.004723072E0,8.686163902E0,2.047760773E1
3.941450420E0,-1.070208192E0,9.940725327E0,1.388636971E1
3.943838497E0,9.361328483E-1,1.045787334E1,5.116408825E0
3.945570228E0,1.312022567E0,1.196382618E1,-3.145981073E0
3.947921382E0,1.958456993E0,1.392946529E1,-9.478644371E0
3.949640843E0,4.807557106E0,1.469321537E1,-1.490869427E1
3.952493426E0,9.267954826E0,1.432690334E1,-2.092053413E1
3.954002920E0,1.279700851E1,1.420240402E1,-2.578794670E1
3.956001382E0,1.306755257E1,1.445379543E1,-2.651338959E1
3.957708728E0,1.080742645E1,1.454477501E1,-2.441846275E1
3.960117190E0,7.539340973E0,1.422874069E1,-2.034353256E1
3.961960805E0,4.297592163E0,1.426225948E1,-1.521754646E1
3.964204305E0,1.273715258E0,1.428859615E1,-1.105642319E1
3.966125074E0,-1.532289028E0,1.367807388E1,-7.850587368E0
3.968498766E0,-2.918531895E0,1.137006378E1,-4.537012100E0
3.970113382E0,-1.613691926E0,7.371747017E0,-1.230619669E0
3.972900426E0,1.884236693E0,3.995922565E0,3.031059265E0
3.974448651E0,6.141127586E0,3.394978046E0,1.134133339E1
3.976968772E0,5.607220173E0,4.089296341E0,1.471476364E1
3.978202497E0,1.881842494E0,5.025429249E0,1.961569405E1
3.981036541E0,-3.548206806E0,5.123591423E0,2.005143929E1
3.982873497E0,-4.695029736E0,6.483498096E0,1.949837875E1
3.985139618E0,-3.775655985E0,7.252037048E0,1.840183449E1
3.986345882E0,-3.088520169E-1,5.688623428E0,1.517684460E1
3.989243388E0,5.295974255E0,2.535459518E0,9.758766174E0
3.990469497E0,1.098699188E1,4.740519226E-1,3.303998232E0
3.993346657E0,1.280419064E1,2.468421936E0,-2.121262789E0
3.995056690E0,7.726089001E0,8.068459511E0,-4.220977783E0
3.997385157E0,-2.659958124E0,1.279461384E1,-4.290409565E0
3.998590574E0,-1.320641613E1,1.498530865E1,-3.385401249E0
4.001453618E0,-1.909615326E1,1.527979565E1,-1.666364431E0
4.002651190E0,-1.859815788E1,1.393664837E1,-9.744400978E-1
4.005556734E0,-1.251209831E1,1.201649857E1,-1.259350061E0
4.006759997E0,-3.074155092E0,8.209717751E0,-3.220201254E0
4.009464574E0,6.105214119E0,3.835511208E0,-4.884171486E0
4.010891959E0,1.142273617E1,1.788468719E0,-3.572149038E0
4.013762964E0,1.089601231E1,2.638410330E0,-1.244984865E-1
4.015555728E0,6.440402865E-1,7.649474621E0,7.900865555E0
4.017233805E0,-3.541024208E0,9.030928612E0,1.066377449E1
4.019046420E0,-9.524134636E0,1.058955383E1,1.540668774E1
4.021512613E0,-1.040998936E1,1.092474270E1,1.875856972E1
4.023159574E0,-6.675034523E0,9.495404243E0,1.983117294E1
4.025761959E0,7.134721279E-1,5.863399982E0,1.733880806E1
4.027228536E0,1.101332760E1,1.379060149E0,1.169567490E1
4.029594920E0,2.152147865E1,-9.888052940E-1,4.611232281E0
4.031353343E0,2.767697144E1,7.876923680E-1,-1.719036818E0
4.034234695E0,2.047521210E1,8.353369713E0,-6.607996464E0
4.035514690E0,7.663839817E0,1.155920601E1,-7.338228226E0
4.038004613E0,-4.132391930E0,1.302445698E1,-7.477091789E0
4.039594305E0,-1.176510715E1,1.443943024E1,-6.938396454E0
4.041981190E0,-1.498052025E1,1.629254341E1,-6.945579052E0
4.043741920E0,-1.319923401E1,1.774582291E1,-8.437167168E0
4.046070959E0,-7.264008045E0,1.602918053E1,-1.162624359E1
4.047787305E0,6.655880809E-1,1.095107841E1,-1.422634697E1
4.050426305E0,8.616731644E0,5.614402771E0,-1.460223579E1
4.052539266E0,1.469082165E1,3.272873640E0,-1.267250919E1
4.054771503E0,1.545457172E1,5.530605793E0,-7.790732384E0
4.056357651E0,1.041477776E1,9.052476883E0,-1.702277422E0
4.058843272E0,2.832340717E0,1.125274754E1,3.538630009E0
4.060056343E0,-3.021482468E0,1.231337929E1,7.735665798E0
4.062912195E0,-5.025429249E0,1.178426075E1,1.021366405E1
4.064152651E0,-2.762908697E0,9.095572472E0,1.010113716E1
4.067016272E0,3.940855980E0,5.772420406E0,8.152256966E0
4.068273843E0,1.309149456E1,3.732560396E0,5.087678432E0
4.071120656E0,1.897883606E1,4.448426723E0,2.621650934E0
4.072492074E0,1.668279839E1,6.789956093E0,2.118868589E0
4.075225156E0,7.240066051E0,7.975085735E0,3.277662039E0
4.077056920E0,-7.852981567E0,8.513781548E0,8.279149055E0
4.079272926E0,-1.089361763E1,9.040505409E0,1.052491093E1
4.080455805E0,-1.353442192E1,1.011789608E1,1.368765068E1
4.083341464E0,-1.259828949E1,1.077869606E1,1.402044487E1
4.084594920E0,-9.667786598E0,1.006043530E1,1.191115379E1
4.087445310E0,-2.161964178E0,5.056553841E0,5.975927353E0
4.088664536E0,4.381389141E0,2.985569477E0,3.332728863E0
4.091346536E0,1.020648193E1,3.083731890E0,8.619126081E-1
4.092790997E0,1.205001736E1,4.599261284E0,-1.553836942E0
4.095652656E0,9.260771751E0,7.082048416E0,-2.379836559E0
4.097314843E0,4.771644115E0,1.038365269E1,-1.723825216E0
4.099157920E0,-2.154781520E-1,1.361821938E1,-5.793967843E-1
4.100995843E0,-5.379771233E0,1.483207989E1,-4.189853072E-1
4.103571766E0,-6.921637058E0,1.294784260E1,-3.043030262E0
4.105340420E0,-8.858546019E-1,9.612719536E0,-7.714118004E0
4.107460613E0,1.066137981E1,7.486668587E0,-1.229662037E1
4.109276651E0,2.059731674E1,7.268796444E0,-1.575624180E1
4.111518382E0,2.241212273E1,7.979874134E0,-1.684081459E1
4.113268574E0,1.517684460E1,8.343792915E0,-1.448252583E1
4.116137464E0,3.809175014E0,8.482656479E0,-9.200917244E0
4.117433959E0,-6.643909931E0,9.821015358E0,-2.015917778E0
4.119842343E0,-1.401086807E1,1.134612179E1,4.675876141E0
4.121481920E0,-1.702756310E1,1.182735634E1,8.547300339E0
4.123919574E0,-1.564610767E1,1.023042393E1,9.928754807E0
4.125609420E0,-1.068053341E1,5.647922039E0,9.311050415E0
4.127940382E0,-3.289633036E0,1.414973259E0,9.897629738E0
4.129721074E0,4.455609322E0,2.489969730E-1,1.284010410E1
4.132126074E0,8.090007782E0,1.273715258E0,1.606988144E1
4.134091613E0,4.031835556E0,2.157175779E0,1.625662994E1
4.136683079E0,-2.561795712E-1,5.908889771E0,1.734120369E1
4.138398074E0,-2.746149302E0,1.058716011E1,1.878730011E1
4.140760579E0,-3.708618402E0,1.119049835E1,1.687193871E1
4.142055189E0,-1.599326730E0,7.582436562E0,1.114740276E1
4.144828810E0,5.391742229E0,3.912125587E0,4.072536945E0
4.146167728E0,1.484165668E1,3.224989653E0,-3.162740469E0
4.148932118E0,2.079364204E1,5.693411827E0,-1.024478912E1
4.150150920E0,1.814326096E1,9.416395187E0,-1.516008472E1
4.153035272E0,8.729259491E0,1.192791271E1,-1.685039139E1
4.154328997E0,-1.225831270E0,1.264377880E1,-1.648647308E1
4.157138579E0,-7.295132637E0,1.243548393E1,-1.562456036E1
4.158873074E0,-8.676587105E0,1.222000504E1,-1.448731422E1
4.161177002E0,-6.687005520E0,1.266293240E1,-1.289517021E1
4.162465459E0,-2.389413357E0,1.203804588E1,-1.165497398E1
4.165246041E0,2.322375536E0,9.282320023E0,-1.082897472E1
4.166469189E0,5.437232018E0,5.918466568E0,-9.272743225E0
4.169350425E0,6.466738701E0,4.034229755E0,-6.189011574E0
4.170578189E0,5.561730385E0,3.849876404E0,-1.280897856E0
4.173256882E0,3.502717018E0,3.289633036E0,4.740519524E0
4.174663420E0,2.102109194E0,2.904166698E0,1.120246983E1
4.177558771E0,1.142034173E0,4.213795185E0,1.780328369E1
4.179173536E0,-2.269703150E0,5.121197224E0,2.283828926E1
4.181048497E0,-3.090914488E0,4.252102375E0,2.197398376E1
4.182859959E0,-1.663970232E0,1.273715258E0,1.767160225E1
4.185519728E0,4.814739704E0,-7.661445141E-1,1.255040550E1
4.187205920E0,1.289038181E1,5.267243981E-1,9.150638580E0
4.189378497E0,1.586876869E1,6.011840343E0,6.442796707E0
4.191101728E0,1.084573364E1,6.296750546E0,2.264914751E0
4.193439343E0,4.599261284E0,5.573701382E0,-2.181117773E0
4.195533151E0,3.591302410E-2,7.158663273E0,-4.005499363E0
4.198032579E0,-2.252943754E0,1.067813969E1,-5.035006046E0
4.199410651E0,-3.483563423E0,1.459505367E1,-6.464344501E0
4.201684266E0,-4.244919777E0,1.495657825E1,-9.686940193E0
4.203255420E0,-3.263296843E0,1.102769279E1,-1.455674648E1
4.205691266E0,-4.333505034E-1,6.995857239E0,-1.734359741E1
4.207362997E0,2.858676910E0,7.055712223E0,-1.592383575E1
4.209740843E0,3.780444384E0,1.042195988E1,-1.133415127E1
4.211465382E0,7.996633649E-1,1.273954678E1,-6.464344501E0
4.213978882E0,-3.845088005E0,1.410184765E1,-1.235408068E0
4.215626651E0,-7.675810814E0,1.517923832E1,4.944026470E0
4.218452771E0,-9.083600998E0,1.273715305E1,8.916007042E0
4.220016343E0,-5.944802761E0,6.892906666E0,9.639056206E0
4.222521156E0,2.837129116E0,1.666364431E0,9.737217903E0
4.223777305E0,1.358709431E1,-4.381389022E-1,1.106599998E1
4.226591040E0,1.958696365E1,2.849099934E-1,1.254561710E1
4.227810766E0,1.617283249E1,2.013523579E0,1.262701988E1
4.230695810E0,4.953603268E0,3.387795448E0,1.144667816E1
4.231980536E0,-6.974309444E0,5.224148273E0,1.104445267E1
4.234800502E0,-1.384327412E1,8.552088737E0,1.277785492E1
4.236037728E0,-1.445858383E1,1.125514221E1,1.389834118E1
4.238904848E0,-1.031182671E1,1.192551899E1,1.179383755E1
4.240685728E0,-5.817909837E-1,8.664615631E0,3.368641853E0
4.242958348E0,2.664746523E0,7.122750282E0,1.221042871E-1
4.244221497E0,7.692570210E0,5.777208805E0,-4.651933670E0
4.247027310E0,9.141061783E0,7.881711960E0,-7.596801758E0
4.248246036E0,5.762843609E0,1.010592556E1,-7.089231014E0
4.251131233E0,7.852981687E-1,1.157596493E1,-4.544194698E0
4.252574689E0,-3.734954596E0,1.345780754E1,4.070143029E-2
4.255037112E0,-7.728483200E0,1.511220074E1,4.781220913E0
4.256495651E0,-1.038125896E1,1.358470058E1,6.078877926E0
4.259338810E0,-8.789113998E0,8.856152534E0,3.785232782E0
4.260962343E0,-5.841852427E-1,3.885789394E0,3.327940404E-1
4.262795805E0,1.153765774E1,2.260126352E0,-1.656787634E0
4.264723497E0,2.023579216E1,4.237737179E0,-2.085349798E0
4.267090266E0,1.957978058E1,6.797138691E0,-2.413355350E0
4.268776959E0,1.016578007E1,7.079654217E0,-2.863465309E0
4.271250843E0,-1.429338455E0,7.019799232E0,-1.228225470E0
4.272868728E0,-9.849745750E0,8.985439301E0,3.538630009E0
4.275198420E0,-1.413776112E1,1.161906052E1,8.389283180E0
4.276943074E0,-1.518402672E1,1.317529202E1,1.052012253E1
