"Time (s)","Gyroscope x (rad/s)","Gyroscope y (rad/s)","Gyroscope z (rad/s)"
7.781269000E-3,-4.623247683E-1,-1.135571957E0,3.355583176E-2
9.543654000E-3,-4.623247683E-1,-1.135571957E0,3.355583176E-2
1.132919200E-2,-4.623247683E-1,-1.135571957E0,3.355583176E-2
1.390334600E-2,-4.623247683E-1,-1.135571957E0,3.355583176E-2
1.550130800E-2,-4.623247683E-1,-1.135571957E0,3.355583176E-2
1.810388500E-2,-4.623247683E-1,-1.135571957E0,3.355583176E-2
1.952646200E-2,-4.623247683E-1,-1.135571957E0,3.355583176E-2
2.193738500E-2,-4.623247683E-1,-1.135571957E0,3.355583176E-2
2.365896200E-2,-4.623247683E-1,-1.135571957E0,3.355583176E-2
2.655440300E-2,-4.623247683E-1,-1.135571957E0,3.355583176E-2
2.786173100E-2,-4.623247683E-1,-1.135571957E0,3.355583176E-2
3.005888500E-2,-4.623247683E-1,-1.135571957E0,3.355583176E-2
3.182765400E-2,-4.623247683E-1,-1.135571957E0,3.355583176E-2
3.420396200E-2,-4.623247683E-1,-1.135571957E0,3.355583176E-2
3.586742300E-2,-4.623247683E-1,-1.135571957E0,3.355583176E-2
3.824923100E-2,-4.623247683E-1,-1.135571957E0,3.355583176E-2
3.996711500E-2,-7.068029642E-1,-9.060074091E-1,-1.214401498E-1
4.237811500E-2,-6.103965044E-1,-1.235174179E0,6.285060197E-2
4.408184600E-2,-3.531351686E-1,-1.178715110E0,1.672465205E-1
4.697674900E-2,-6.391586736E-3,-8.873652816E-1,1.842907518E-1
4.851234600E-2,4.649879336E-1,-7.723167539E-2,9.161274135E-2
5.104540300E-2,5.310343504E-1,2.146507949E-1,6.285060197E-2
5.224442300E-2,4.916195571E-1,6.519418359E-1,1.970739290E-2
5.511482600E-2,3.499393761E-1,7.904262543E-1,-6.285060197E-2
5.634565400E-2,1.810949594E-1,5.368933082E-1,-1.922802329E-1
5.921971000E-2,2.609897964E-2,9.161274135E-2,-2.902845740E-1
6.048207700E-2,-1.656486243E-1,-4.277036786E-1,-2.556634545E-1
6.332482600E-2,-3.265035450E-1,-9.837717414E-1,-1.757686399E-2
6.463584600E-2,-1.890844405E-1,-1.128115058E0,1.406149119E-1
6.742959500E-2,4.314320907E-2,-9.102684855E-1,2.109223604E-1
6.936815400E-2,2.402171344E-1,-4.308994710E-1,2.231729031E-1
7.146847900E-2,3.557983339E-1,-4.846953228E-2,2.423476577E-1
7.264400000E-2,3.499393761E-1,3.296993375E-1,1.885518134E-1
7.553797900E-2,2.279665917E-1,5.880259871E-1,6.178534031E-2
7.679830800E-2,7.936219871E-2,4.277036786E-1,-4.740426689E-2
7.963588500E-2,-3.195793182E-2,1.379517466E-1,-1.800296903E-1
8.088273100E-2,-1.214401498E-1,-2.002697140E-1,-2.332929224E-1
8.368011500E-2,-2.263686955E-1,-4.692489803E-1,-1.560612470E-1
8.502869200E-2,-3.153182864E-1,-5.752428174E-1,4.101268202E-2
8.785151800E-2,-2.652508616E-1,-7.717841268E-1,2.801645398E-1
8.956426900E-2,-6.125270575E-2,-7.712514400E-1,3.765709996E-1
9.133030800E-2,1.906823367E-1,-5.938849449E-1,3.115898669E-1
9.316215400E-2,3.765709996E-1,-2.476739883E-1,1.720402092E-1
9.559492300E-2,3.707120419E-1,8.202536404E-2,7.776430249E-2
9.725253800E-2,1.992044598E-1,4.202468395E-1,-1.491370238E-2
9.965400000E-2,-2.290318534E-2,5.028048158E-1,-1.480717659E-1
1.013321540E-1,-1.470064968E-1,2.854908705E-1,-3.387540877E-1
1.037066150E-1,-1.917476058E-1,-9.001484513E-2,-5.022721887E-1
1.055090770E-1,-3.041329980E-1,-2.876214087E-1,-4.293015897E-1
1.083348640E-1,-4.532700181E-1,-4.415521026E-1,-9.374327213E-2
1.096082690E-1,-4.724447727E-1,-5.502091050E-1,3.067961633E-1
1.119650000E-1,-2.748382390E-1,-6.503439546E-1,5.352953672E-1
1.136873850E-1,7.510114461E-2,-6.817692518E-1,5.358279943E-1
1.161194230E-1,5.033374429E-1,-5.672533512E-1,2.684466541E-1
1.177908460E-1,5.012069345E-1,-1.752360016E-1,2.609897964E-2
1.201726150E-1,2.540655732E-1,2.583266199E-1,-1.480717659E-1
1.219251540E-1,-6.125270575E-2,5.475459099E-1,-3.158509135E-1
1.243343850E-1,-2.897519469E-1,3.632551730E-1,-4.245078862E-1
1.260585000E-1,-3.318298757E-1,1.965412945E-1,-5.566006899E-1
1.288805950E-1,-3.360909224E-1,-7.989483327E-2,-4.649879336E-1
1.304592310E-1,-4.426173866E-1,-2.514024079E-1,-1.395496428E-1
1.329514020E-1,-5.486112237E-1,-3.430151641E-1,3.036003709E-1
1.341430770E-1,-5.464806557E-1,-5.528722405E-1,6.423544884E-1
1.370205950E-1,-3.893541694E-1,-5.065332651E-1,6.364955306E-1
1.383485380E-1,-1.592570394E-1,-5.677859783E-1,4.277036786E-1
1.411247870E-1,1.012001187E-2,-4.740426838E-1,1.331580579E-1
1.423773850E-1,-3.621899337E-2,-1.033306494E-1,-1.294296384E-1
1.452288250E-1,-2.306297570E-1,3.238403797E-1,-2.471413612E-1
1.464863460E-1,-3.813646734E-1,3.749730885E-1,-2.008023560E-1
1.493327870E-1,-3.259709179E-1,2.519350350E-1,-1.912149638E-1
1.511456150E-1,3.036003746E-2,-1.603222936E-1,-1.251685768E-1
1.533785180E-1,1.059938148E-1,-2.956108749E-1,-4.048004746E-2
1.545621920E-1,1.294296384E-1,-2.828277051E-1,2.002697140E-1
1.574476330E-1,2.130528912E-2,-2.050634027E-1,4.846953154E-1
1.586783850E-1,-3.408846259E-2,-1.438107044E-1,6.072007418E-1
1.615519410E-1,6.072007492E-2,-2.189118415E-1,5.038700700E-1
1.628532310E-1,2.141181529E-1,-3.664509654E-1,2.322276533E-1
1.655131920E-1,2.487392575E-1,-2.551308274E-1,-4.633900523E-2
1.669540000E-1,1.278317347E-2,3.302319720E-2,-1.480717659E-1
1.697609410E-1,-5.203816891E-1,5.161206126E-1,-1.027980223E-1
1.713374230E-1,-6.508765817E-1,5.576659441E-1,-1.225054115E-1
1.732802690E-1,-5.502091050E-1,3.073287904E-1,-1.336906850E-1
1.750779620E-1,-4.303668439E-1,-6.498113275E-2,-2.130528912E-2
1.775266150E-1,-4.388889670E-1,-2.966761589E-1,2.471413612E-1
1.792105000E-1,-5.320996046E-1,-3.478088379E-1,5.427522659E-1
1.816582310E-1,-4.958806038E-1,-4.692489803E-1,7.403587699E-1
1.833029620E-1,-2.705771625E-1,-5.155879855E-1,7.094660997E-1
1.856493460E-1,1.651159860E-2,-4.511395097E-1,5.310343504E-1
1.874212690E-1,1.885518134E-1,-2.727077007E-1,3.680488765E-1
1.902510940E-1,1.933455020E-1,1.139832959E-1,2.759034932E-1
1.915424620E-1,1.928128600E-1,3.637878001E-1,2.311623842E-1
1.939675770E-1,3.760383427E-1,4.793690145E-1,1.267664731E-1
1.956374620E-1,6.657902598E-1,4.170510471E-1,-2.130528912E-3
1.980357690E-1,8.010788560E-1,2.295644879E-1,5.912217870E-2
1.997301920E-1,6.743124127E-1,9.960222989E-2,2.476739883E-1
2.021284620E-1,4.868258536E-1,3.515372798E-2,4.383563101E-1
2.038199230E-1,4.399542212E-1,-2.498045117E-1,5.555354357E-1
2.062769230E-1,4.980111420E-1,-4.969458580E-1,5.560680628E-1
2.079616540E-1,4.793690145E-1,-6.439523697E-1,5.038700700E-1
2.107976330E-1,2.764361203E-1,-4.463458061E-1,3.813646734E-1
2.124488850E-1,-1.438107044E-1,1.922802329E-1,5.113269389E-2
2.148774790E-1,-3.131877482E-1,4.447479248E-1,-1.027980223E-1
2.160745380E-1,-6.199839115E-1,8.623315692E-1,-3.611246645E-1
2.189467100E-1,-1.032241225E0,7.984157205E-1,-3.861583769E-1
2.201755770E-1,-1.236772060E0,5.699164867E-1,-2.300971150E-1
2.230509790E-1,-1.299622655E0,-9.480853379E-2,9.640643001E-2
2.243118460E-1,-1.223456264E0,-8.644620776E-1,4.527373910E-1
2.271546710E-1,-1.004544377E0,-1.256479383E0,6.290386319E-1
2.284064230E-1,-6.439523697E-1,-1.106809735E0,5.182511806E-1
2.312576710E-1,-2.300971150E-1,-6.066681147E-1,3.126551211E-1
2.329814230E-1,7.350324839E-2,-9.001484513E-2,2.189118415E-1
2.352956330E-1,2.194444835E-1,4.623247683E-1,1.960086524E-1
2.364965000E-1,3.254382908E-1,9.358348250E-1,8.255799860E-2
2.393637860E-1,5.070658922E-1,1.051416039E0,-1.049285457E-1
2.405751920E-1,6.828345060E-1,6.317018270E-1,-1.917476058E-1
2.434672860E-1,7.707188129E-1,-5.805691332E-2,-9.267801046E-2
2.447104230E-1,7.366303802E-1,-6.119944453E-1,1.075917110E-1
2.473947690E-1,7.025418878E-1,-7.621967196E-1,2.460760921E-1
2.488757690E-1,8.335694075E-1,-7.382282615E-1,3.589941263E-1
2.516741330E-1,1.033839107E0,-8.165252209E-1,5.443501472E-1
2.533015770E-1,1.017860174E0,-3.025351167E-1,6.551376581E-1
2.551716920E-1,9.123989940E-1,-7.723167539E-2,6.162554622E-1
2.570031920E-1,6.135923266E-1,3.366235793E-1,3.451456726E-1
2.594348850E-1,2.657834888E-1,8.122641444E-1,-1.656486243E-1
2.611103460E-1,-1.262338310E-1,9.523464441E-1,-6.103965044E-1
2.634813850E-1,-5.363606811E-1,5.390238166E-1,-7.914915085E-1
2.651878080E-1,-9.337043166E-1,2.258360684E-1,-7.430219650E-1
2.676302310E-1,-1.242630959E0,-6.711166352E-2,-4.974785149E-1
2.693036150E-1,-1.354483724E0,-8.218515515E-1,1.864212751E-1
2.721515940E-1,-1.255414128E0,-9.235842824E-1,4.697816372E-1
2.734859610E-1,-1.087635040E0,-5.187838078E-1,4.671184719E-1
2.757038460E-1,-1.015197039E0,-4.261057824E-3,3.749730885E-1
2.774198080E-1,-1.090830803E0,2.860234976E-1,3.286340833E-1
2.798189230E-1,-1.176051974E0,4.245078862E-1,2.103897333E-1
2.815014610E-1,-1.107874990E0,3.818973005E-1,-1.278317347E-2
2.839920770E-1,-8.181231022E-1,9.534116834E-2,-2.098570913E-1
2.856448460E-1,-3.930825889E-1,-3.579288721E-1,-2.082591951E-1
2.880446920E-1,6.391586736E-3,-6.503439546E-1,5.326322280E-4
2.897300380E-1,4.239752591E-1,-5.704491138E-1,2.407497615E-1
2.925679400E-1,9.715211987E-1,-2.599245310E-1,4.372910559E-1
2.941094610E-1,1.560612440E0,-2.343581803E-2,6.263754964E-1
2.966350170E-1,1.991511941E0,6.711166352E-2,8.213189244E-1
2.980870000E-1,2.098571062E0,2.141181529E-1,9.012137055E-1
3.007044400E-1,1.859419107E0,4.266384244E-1,7.739146352E-1
3.019334230E-1,1.455683827E0,3.936152160E-1,4.836300611E-1
3.048088630E-1,9.890980721E-1,2.492718846E-1,4.367584363E-2
3.060418850E-1,5.640575290E-1,1.123853996E-1,-3.403519988E-1
3.089129780E-1,1.411475390E-1,-1.651159860E-2,-4.559331834E-1
3.101558080E-1,-3.057309091E-1,1.757686399E-2,-2.636529505E-1
3.130169020E-1,-5.944175720E-1,-1.704423130E-1,1.613875628E-1
3.147630380E-1,-6.263754964E-1,-3.163835406E-1,6.221144199E-1
3.170563630E-1,-5.581985712E-1,-2.221076339E-1,6.444849968E-1
3.182935380E-1,-4.303668439E-1,-1.864212751E-2,6.056028605E-1
3.211271710E-1,-5.129248500E-1,7.563377917E-2,5.976133347E-1
3.223691920E-1,-8.042746782E-1,1.251685768E-1,5.320996046E-1
3.252330940E-1,-1.039698124E0,2.306297570E-1,2.577939928E-1
3.265098840E-1,-1.037034988E0,2.114549875E-1,-1.171790883E-1
3.291940000E-1,-8.404936790E-1,-1.358212233E-1,-2.545982003E-1
3.306578840E-1,-7.941546440E-1,-2.375539690E-1,-1.597896591E-2
3.334443630E-1,-7.398261428E-1,2.556634694E-2,1.949433982E-1
3.352146540E-1,-5.523396134E-1,1.629854590E-1,3.376888335E-1
3.369267690E-1,-1.528654546E-1,7.776430249E-2,4.186489284E-1
3.387834230E-1,2.508697808E-1,-1.997370869E-1,4.266384244E-1
3.412045000E-1,4.431500137E-1,-2.769687474E-1,3.233077526E-1
3.428394610E-1,4.340952635E-1,6.072007492E-2,9.587380290E-2
3.453136150E-1,3.243730366E-1,4.261057973E-1,-1.257012039E-1
3.470186920E-1,2.657834888E-1,5.193164349E-1,-2.029328793E-1
3.495173840E-1,2.716424465E-1,3.163835406E-1,-1.065264493E-1
3.512111150E-1,2.806971967E-1,6.072007492E-2,8.948221803E-2
3.539255940E-1,3.051982522E-1,-1.715075821E-1,2.865561247E-1
3.552991920E-1,4.175836742E-1,-5.198490620E-1,4.511395097E-1
3.576064610E-1,5.544701219E-1,-5.832322836E-1,4.516721368E-1
3.593197310E-1,5.715143681E-1,-2.535329461E-1,3.174487948E-1
3.617151920E-1,3.952131271E-1,2.183792181E-2,2.796319127E-1
3.633698460E-1,1.315601617E-1,2.545982003E-1,2.226402760E-1
3.657891920E-1,-8.468852192E-2,4.580637217E-1,1.054611802E-1
3.676476540E-1,-2.636529505E-1,4.372910559E-1,-1.491370238E-2
3.699483460E-1,-4.090615511E-1,3.062635362E-1,-4.633900523E-2
3.716367310E-1,-5.869607329E-1,-1.347559541E-1,1.246359423E-1
3.744673630E-1,-7.419567108E-1,-2.956108749E-1,2.620550692E-1
3.760338840E-1,-6.040049195E-1,-5.667206645E-1,4.330300093E-1
3.785417090E-1,-3.877562582E-1,-5.731122494E-1,5.336974859E-1
3.797153080E-1,-1.794970632E-1,-5.336974859E-1,6.045376062E-1
3.826112090E-1,2.982740477E-2,-4.069310129E-1,5.656554103E-1
3.838552690E-1,2.024002522E-1,3.195793182E-2,2.753708661E-1
3.867155550E-1,3.051982522E-1,6.450176239E-1,-1.262338310E-1
3.879983080E-1,2.583266199E-1,9.981527925E-1,-3.792341352E-1
3.908198240E-1,1.491370201E-1,9.118663669E-1,-3.643204570E-1
3.920640770E-1,6.231797114E-2,5.294364095E-1,-1.858886480E-1
3.949240170E-1,7.563377917E-2,5.326322280E-3,1.171790902E-2
3.967430380E-1,1.315601617E-1,-5.667206645E-1,1.992044598E-1
3.989705940E-1,1.715075821E-1,-8.303736448E-1,2.817624509E-1
4.002855380E-1,2.077265680E-1,-6.721818447E-1,2.753708661E-1
4.030403630E-1,1.576591432E-1,-3.957457542E-1,3.147856593E-1
4.043088080E-1,2.024002373E-2,4.740426689E-2,3.110572100E-1
4.071451700E-1,-1.331580579E-1,5.065332651E-1,2.002697140E-1
4.083693460E-1,-2.300971150E-1,7.158577442E-1,2.183792181E-2
4.111105770E-1,-2.806971967E-1,6.024070382E-1,-1.049285457E-1
4.125533080E-1,-4.245078862E-1,2.141181529E-1,-4.580637068E-2
4.153544400E-1,-6.604639888E-1,-6.817692518E-2,8.255799860E-2
4.170285000E-1,-7.819041014E-1,-4.314320982E-1,2.482066154E-1
4.188687690E-1,-7.265103459E-1,-5.667206645E-1,3.014698327E-1
4.206837310E-1,-4.799016416E-1,-7.872304320E-1,4.143878818E-1
4.231336540E-1,-1.784317940E-1,-9.432916641E-1,5.310343504E-1
4.247664230E-1,8.628641814E-2,-6.002765298E-1,4.612595141E-1
4.271854610E-1,2.183792144E-1,2.082591951E-1,2.018676102E-1
4.288408460E-1,2.476739883E-1,9.693906307E-1,-8.362326026E-2
4.313020000E-1,2.055960447E-1,1.198955178E0,-1.901497096E-1
4.330801920E-1,1.326254308E-1,7.968178391E-1,-6.285060197E-2
4.358329400E-1,4.474110901E-2,2.316950262E-1,8.575379103E-2
4.371883070E-1,3.195793182E-2,-4.836300611E-1,2.407497615E-1
4.394853460E-1,1.027980223E-1,-1.079112887E0,3.440804183E-1
4.412032310E-1,2.242381722E-1,-1.084439158E0,3.344930410E-1
4.436695380E-1,3.046656251E-1,-7.707188129E-1,3.286340833E-1
4.453405000E-1,3.067961633E-1,-1.342233270E-1,3.185140789E-1
4.477105770E-1,2.503371537E-1,6.711165905E-1,2.135855258E-1
4.494376150E-1,1.954760253E-1,1.224521518E0,8.362326026E-2
4.518784230E-1,1.720402092E-1,1.044491768E0,6.604639441E-2
4.535348460E-1,6.657902896E-2,5.225121975E-1,1.097222418E-1
4.563871700E-1,-9.161274135E-2,3.302319720E-2,1.033306494E-1
4.580454610E-1,-2.929477394E-1,-7.552725077E-1,2.008023560E-1
4.604687860E-1,-3.083940744E-1,-9.139968753E-1,2.370213419E-1
4.616475000E-1,-1.917476058E-1,-1.116929770E0,2.956108749E-1
4.645387470E-1,6.498113275E-2,-1.059938192E0,3.009372056E-1
4.659030000E-1,2.604571581E-1,-4.474110603E-1,1.640507281E-1
4.686445550E-1,3.270362020E-1,5.299690962E-1,-3.462109342E-2
4.700690380E-1,1.906823367E-1,1.424791217E0,-1.512675583E-1
4.727499780E-1,-5.006742850E-2,1.623463035E0,-1.054611802E-1
4.740410380E-1,-3.137203753E-1,1.172856212E0,2.077265643E-2
4.768545550E-1,-6.657902598E-1,-9.267801046E-2,7.297061384E-2
4.788761540E-1,-7.765777707E-1,-9.869675040E-1,5.645901710E-2
4.809034010E-1,-8.303736448E-1,-1.394431114E0,1.171790902E-2
4.821621920E-1,-8.346347213E-1,-1.147289872E0,2.450108156E-2
4.849734390E-1,-7.680556774E-1,-7.110640407E-1,1.656486243E-1
4.864423460E-1,-5.757754445E-1,1.070590764E-1,1.960086524E-1
4.890783620E-1,-2.812298238E-1,9.981527925E-1,7.936219871E-2
4.903055380E-1,-6.924218964E-3,1.296426892E0,5.752427876E-2
4.930337690E-1,1.661812514E-1,9.645969868E-1,1.544633508E-1
4.944376150E-1,2.066612989E-1,5.209143162E-1,2.024002522E-1
4.972874390E-1,2.269013226E-1,-3.675162420E-2,2.173139453E-1
4.989584610E-1,3.041329980E-1,-7.755125165E-1,3.270362020E-1
5.008412310E-1,4.495415986E-1,-1.391235352E0,5.033374429E-1
5.027330770E-1,6.966829300E-1,-1.528654456E0,5.720469952E-1
5.050718070E-1,1.011468649E0,-1.077515006E0,4.628573954E-1
5.067340000E-1,1.194694042E0,-2.008023560E-1,2.652508616E-1
5.091230380E-1,1.128115058E0,9.454222322E-1,9.267801046E-2
5.108426540E-1,8.570052385E-1,1.578721881E0,4.740426689E-2
5.132223460E-1,5.305017233E-1,1.487109184E0,1.597896684E-3
5.149898840E-1,1.826928556E-1,1.051416039E0,-1.288969964E-1
5.177805550E-1,-2.359560728E-1,1.736381054E-1,-2.290318608E-1
5.197316540E-1,-6.167881489E-1,-7.531419992E-1,-2.359560728E-1
5.214728840E-1,-9.779127836E-1,-1.089232922E0,-2.093244642E-1
5.230617310E-1,-1.261805773E0,-9.464874864E-1,-8.042746782E-2
5.253938070E-1,-1.349690080E0,-5.944175720E-1,1.225054115E-1
5.270152690E-1,-1.260740519E0,-1.198422536E-1,2.695119083E-1
5.295089610E-1,-1.076982379E0,4.921521842E-1,2.641855776E-1
5.311348840E-1,-8.958874345E-1,8.559399843E-1,2.024002522E-1
5.336618840E-1,-7.957525253E-1,7.552725077E-1,1.677791476E-1
5.353551920E-1,-7.419567108E-1,3.818973005E-1,1.012001261E-1
5.380967080E-1,-5.273059011E-1,-4.191815555E-1,-3.408846259E-2
5.396606920E-1,-1.928128600E-1,-9.257147908E-1,-3.249056637E-2
5.421659010E-1,1.624528319E-1,-1.124386668E0,4.367584363E-2
5.433460000E-1,4.655205607E-1,-7.781757116E-1,8.255799860E-2
5.462350930E-1,7.387608886E-1,-2.982740477E-2,1.384843793E-2
5.474963840E-1,9.219864011E-1,9.097358584E-1,-1.081243455E-1
5.503399390E-1,9.374327064E-1,1.319862604E0,-3.675162420E-2
5.516920000E-1,7.382282615E-1,1.269262552E0,1.203748807E-1
5.544445930E-1,4.362258017E-1,9.294432402E-1,2.173139453E-1
5.557300000E-1,1.347559541E-1,7.297061384E-2,2.679139972E-1
5.585495160E-1,-1.049285457E-1,-8.394283652E-1,2.790992856E-1
5.602703460E-1,-3.206445873E-1,-1.287904739E0,2.514024079E-1
5.625874780E-1,-5.065332651E-1,-1.295361519E0,2.854908705E-1
5.637995770E-1,-5.496764779E-1,-9.305084944E-1,3.414172530E-1
5.666574010E-1,-4.095941782E-1,-2.098570913E-1,3.094593287E-1
5.681476150E-1,-1.320927888E-1,6.902913451E-1,2.103897333E-1
5.707622850E-1,1.315601617E-1,1.092961311E0,2.269013226E-1
5.720009230E-1,2.439455539E-1,1.054611802E0,3.110572100E-1
5.746863460E-1,2.082591951E-1,8.836368918E-1,3.067961633E-1
5.761650380E-1,1.400822699E-1,3.073287904E-1,3.051982522E-1
5.789713620E-1,1.438107044E-1,-5.768406987E-1,3.611246645E-1
5.807078460E-1,2.913498282E-1,-1.474858642E0,4.442152679E-1
5.826222300E-1,3.435477912E-1,-1.460477591E0,4.213120937E-1
5.843565770E-1,4.703142643E-1,-9.539443254E-1,2.785666585E-1
5.867378460E-1,6.018744111E-1,-5.273059011E-2,8.681905270E-2
5.884285770E-1,6.487460732E-1,9.592706561E-1,-3.781688958E-2
5.908362300E-1,5.496764779E-1,1.394431114E0,2.716424316E-2
5.924777300E-1,3.717772961E-1,1.422128081E0,6.338323653E-2
5.949403840E-1,2.716424316E-2,6.854977012E-1,-2.769687586E-2
5.966286920E-1,-2.487392575E-1,-2.519350350E-1,-7.456851006E-2
5.994557850E-1,-5.198490620E-1,-9.038769007E-1,-1.267664731E-1
6.008179610E-1,-7.653924823E-1,-1.167529821E0,-1.411475390E-1
6.031152690E-1,-8.495483994E-1,-8.500810266E-1,-1.629854590E-1
6.048741150E-1,-8.042746782E-1,-2.098570913E-1,-1.438107044E-1
6.072578840E-1,-7.254450917E-1,5.715143681E-1,-5.273059011E-2
6.089310380E-1,-6.562029123E-1,9.598032832E-1,1.539307088E-1
6.113132300E-1,-6.322344542E-1,1.005609632E0,3.009372056E-1
6.130128840E-1,-6.066681147E-1,8.298410177E-1,2.625876963E-1
6.154844610E-1,-5.331648588E-1,1.464738697E-1,2.024002522E-1
6.172376150E-1,-3.568635881E-1,-8.165252209E-1,1.896170676E-1
6.200008230E-1,-8.575379103E-2,-1.567536592E0,1.938781291E-1
6.216050000E-1,2.226402760E-1,-1.511077642E0,7.723167539E-2
6.240749000E-1,5.619270205E-1,-6.247776151E-1,-1.241033077E-1
6.253691540E-1,8.271778226E-1,4.564658105E-1,-1.624528319E-1
6.281442850E-1,9.369000793E-1,1.264468908E0,3.834952042E-2
6.295980770E-1,8.820389509E-1,1.574993491E0,2.854908705E-1
6.322484770E-1,7.206513882E-1,1.593103051E0,3.078614175E-1
6.335878460E-1,4.554005563E-1,8.847021461E-1,2.567287385E-1
6.363529770E-1,1.081243455E-1,-2.705771625E-1,1.912149638E-1
6.376508840E-1,-2.071939409E-1,-1.232510924E0,1.097222418E-1
6.404570160E-1,-4.932174385E-1,-1.331047893E0,-4.101268202E-2
6.423260770E-1,-4.964132309E-1,-8.122641444E-1,4.367584363E-2
6.445036700E-1,-4.021373391E-1,-1.081243455E-1,2.556634545E-1
6.458866920E-1,-1.864212751E-1,7.563377619E-1,4.016047120E-1
6.485729770E-1,1.155811921E-1,1.178715110E0,4.697816372E-1
6.500128070E-1,3.206445873E-1,1.225586772E0,4.431500137E-1
6.526772850E-1,2.290318608E-1,8.484831452E-1,4.340952635E-1
6.540377690E-1,5.273059011E-2,-1.065264456E-2,4.452805519E-1
6.566391920E-1,7.084008306E-2,-1.034371734E0,3.387540877E-1
6.580939230E-1,2.711097896E-1,-1.480184913E0,4.633900523E-2
6.608866310E-1,4.974785149E-1,-1.230913043E0,-1.986718178E-1
6.626090380E-1,5.587311983E-1,-4.266384244E-1,-1.954760253E-1
6.644521530E-1,4.463458061E-1,7.004113793E-1,1.438106969E-2
6.662279230E-1,2.620550692E-1,1.457814455E0,2.780340314E-1
6.688537300E-1,1.070590764E-1,1.695368409E0,3.249056637E-1
6.706455770E-1,-6.444849819E-2,1.296959519E0,1.667138934E-1
6.727037300E-1,-3.984089196E-1,4.245078862E-1,-6.018744037E-2
6.744398460E-1,-8.783105612E-1,-3.169161677E-1,-2.844256163E-1
6.767725770E-1,-1.350755334E0,-9.203884602E-1,-3.424825370E-1
6.785691530E-1,-1.551557660E0,-1.081243396E0,-2.929477394E-1
6.813528230E-1,-1.493500710E0,-7.637946010E-1,-1.544633508E-1
6.827849610E-1,-1.230380416E0,-1.347559541E-1,8.096009493E-2
6.852789230E-1,-8.111988902E-1,4.367584288E-1,3.675162494E-1
6.868635000E-1,-3.430151641E-1,6.471481323E-1,6.359629035E-1
6.891396920E-1,2.396845073E-2,8.058725595E-1,6.838997602E-1
6.908766920E-1,2.284992188E-1,6.620618701E-1,6.018744111E-1
6.932524610E-1,4.213120937E-1,-3.712446690E-1,4.048005044E-1
6.949316150E-1,6.993461251E-1,-1.017860174E0,1.406149119E-1
6.973641920E-1,9.619337916E-1,-1.035969734E0,-1.976065636E-1
6.991026920E-1,1.046089649E0,-2.354234457E-1,-4.090615511E-1
7.019012080E-1,9.869675040E-1,6.684534550E-1,-2.780340314E-1
7.036733070E-1,9.369000793E-1,1.121723413E0,9.534116834E-2
7.059924000E-1,9.342369437E-1,1.364071131E0,3.291667104E-1
7.071959610E-1,8.543421030E-1,1.227717280E0,3.424825370E-1
7.100618230E-1,5.704491138E-1,7.174556255E-1,2.450108230E-1
7.112926530E-1,7.084008306E-2,6.338323653E-2,1.262338310E-1
7.141660150E-1,-5.368933082E-1,-5.374259353E-1,5.752427876E-2
7.154873460E-1,-1.033306479E0,-7.653924823E-1,-3.195793182E-2
7.182701310E-1,-1.223456264E0,-6.993461251E-1,-7.084008306E-2
7.196583460E-1,-1.195759296E0,-4.346278906E-1,2.183792181E-2
7.223742850E-1,-1.032241225E0,5.113269389E-2,2.242381722E-1
7.241982690E-1,-6.119944453E-1,6.338323355E-1,5.374259353E-1
7.264150540E-1,-4.538026452E-1,7.739146352E-1,5.912217498E-1
7.276081150E-1,-2.551308274E-1,7.797735929E-1,6.322344542E-1
7.304584380E-1,-1.336906850E-1,3.856257200E-1,6.135923266E-1
7.316468460E-1,3.675162420E-2,-3.637878001E-1,5.081311464E-1
7.345279770E-1,2.727077007E-1,-7.893609405E-1,1.976065636E-1
7.357532690E-1,4.761732221E-1,-5.805691481E-1,-1.864212751E-1
7.384674610E-1,5.400890708E-1,-9.161274135E-2,-3.334277868E-1
7.398800380E-1,5.150553584E-1,4.575310946E-1,-1.933455020E-1
7.427354380E-1,5.512743592E-1,8.724516034E-1,8.522115648E-3
7.443467300E-1,7.137271762E-1,1.160605669E0,7.669904083E-2
7.462660380E-1,6.982808709E-1,1.029578090E0,9.374327213E-2
7.481306920E-1,4.623247683E-1,6.386260390E-1,1.049285457E-1
7.504932300E-1,-2.231729031E-1,-5.379585549E-2,5.752427876E-2
7.523055760E-1,-6.918892860E-1,-3.898867965E-1,-6.444849819E-2
7.545232300E-1,-9.193232059E-1,-5.502091050E-1,-1.992044598E-1
7.562016530E-1,-9.773801565E-1,-6.002765298E-1,-2.130528986E-1
7.585790760E-1,-1.021588564E0,-1.651159972E-1,-1.091896072E-1
7.603224230E-1,-1.074319243E0,3.456783295E-1,1.336906850E-1
7.632093230E-1,-1.025317073E0,6.620618701E-1,3.941478431E-1
7.645459230E-1,-8.463526368E-1,6.482134461E-1,5.518069863E-1
7.667332300E-1,-5.060006380E-1,1.922802329E-1,5.976133347E-1
7.684446530E-1,-8.948221803E-2,-5.060006380E-1,5.257080197E-1
7.708556530E-1,3.046656251E-1,-9.523464441E-1,3.291667104E-1
7.725452690E-1,6.258428693E-1,-8.133293986E-1,3.355583176E-2
7.749219230E-1,7.845672965E-1,-2.434129268E-1,-1.826928556E-1
7.766430000E-1,7.904262543E-1,5.970807076E-1,-2.434129268E-1
7.790566150E-1,6.998787522E-1,1.187769890E0,-1.448759735E-1
7.807779230E-1,6.567355394E-1,1.369930148E0,-6.018744037E-2
7.836228230E-1,6.189186573E-1,1.111070871E0,-3.728425503E-2
7.851766920E-1,4.234426320E-1,5.017395616E-1,-1.118527725E-2
7.876895920E-1,5.645901710E-2,-1.347559541E-1,1.810949668E-2
7.888669230E-1,-3.350256681E-1,-6.295713186E-1,4.048004746E-2
7.917582460E-1,-5.613943934E-1,-8.165252209E-1,3.089267015E-2
7.929863840E-1,-6.487460732E-1,-6.892260909E-1,2.450108156E-2
7.958616300E-1,-6.807039976E-1,-2.343581766E-1,7.190535218E-2
7.971073460E-1,-6.066681147E-1,6.072007492E-2,2.482066154E-1
7.999657070E-1,-3.824299276E-1,2.620550692E-1,4.016047120E-1
8.013345000E-1,-1.331580579E-1,5.166532397E-1,4.218447208E-1
8.040702460E-1,9.427590668E-2,1.768338978E-1,5.352953672E-1
8.058033460E-1,3.062635362E-1,-4.229099751E-1,5.416869521E-1
8.081084380E-1,6.045376062E-1,-8.053399324E-1,3.249056637E-1
8.092937300E-1,7.973504663E-1,-5.906891227E-1,-2.876213938E-2
8.121765530E-1,7.323693037E-1,1.438106969E-2,-2.119876295E-1
8.133962300E-1,4.809668958E-1,5.219795704E-1,-1.134506613E-1
8.162799000E-1,2.535329461E-1,8.138620257E-1,4.048004746E-2
8.175772690E-1,1.400822699E-1,9.518138170E-1,6.711166352E-2
8.202452690E-1,4.846953228E-2,7.574030161E-1,2.183792181E-2
8.216575380E-1,-1.597896665E-1,1.757686287E-1,5.060006306E-2
8.244891690E-1,-4.612595141E-1,-4.117247164E-1,8.202536404E-2
8.261951150E-1,-7.797735929E-1,-5.965480804E-1,-4.261057824E-3
8.279960760E-1,-9.534116983E-1,-4.442152679E-1,-1.470064968E-1
8.297993460E-1,-9.784454107E-1,-3.392867148E-1,-1.363538504E-1
8.323147690E-1,-9.731190801E-1,-3.834952042E-2,-7.456851192E-3
8.341089610E-1,-9.001484513E-1,3.030677438E-1,1.768338978E-1
8.364770380E-1,-6.998787522E-1,4.197141826E-1,3.281014562E-1
8.380213070E-1,-3.930825889E-1,4.095941782E-1,3.776362538E-1
8.404026150E-1,-5.805691332E-2,1.757686399E-2,4.729774296E-1
8.421172690E-1,2.343581766E-1,-5.262406468E-1,5.619270205E-1
8.449669760E-1,5.656554103E-1,-8.665926456E-1,5.230448246E-1
8.462980000E-1,9.177253246E-1,-8.985505700E-1,3.270362020E-1
8.486190380E-1,1.185639381E0,-3.403519988E-1,2.556634694E-2
8.504375380E-1,1.308677435E0,3.147856593E-1,-1.475391239E-1
8.527803840E-1,1.295361519E0,7.829693556E-1,-1.278317273E-1
8.544188460E-1,1.197889924E0,1.094559193E0,-8.522115648E-2
8.568228070E-1,9.970875382E-1,1.038632870E0,-8.681905270E-2
8.585279990E-1,7.893609405E-1,4.042678475E-1,2.130528912E-3
8.609538840E-1,4.617921412E-1,-3.334277868E-1,1.214401498E-1
8.625631920E-1,3.408846259E-2,-6.886934638E-1,1.209075153E-1
8.654398990E-1,-3.739078343E-1,-5.672533512E-1,4.261057824E-2
8.670618070E-1,-6.908239722E-1,-3.787015080E-1,4.633900523E-2
8.695118990E-1,-8.495483994E-1,-1.454086006E-1,1.278317273E-1
8.708271530E-1,-8.713863492E-1,6.444849819E-2,2.604571581E-1
8.735813610E-1,-8.367652297E-1,2.024002522E-1,4.010720551E-1
8.748170380E-1,-7.909588814E-1,1.858886480E-1,5.177185535E-1
8.776851690E-1,-7.121292949E-1,-1.086569726E-1,5.832322836E-1
8.789031920E-1,-5.289037824E-1,-5.416869521E-1,4.948153496E-1
8.817890920E-1,-1.832254827E-1,-6.727145314E-1,1.528654546E-1
8.830868840E-1,2.077265680E-1,-3.659183383E-1,-3.009372056E-1
8.858929760E-1,4.032025933E-1,9.161274135E-2,-4.649879336E-1
8.877201530E-1,3.557983339E-1,7.776430249E-1,-1.427454352E-1
8.899406300E-1,3.355582952E-1,9.342369437E-1,-2.024002373E-2
8.911356530E-1,3.675162494E-1,1.088167667E0,9.321063757E-2
8.940094760E-1,4.053331316E-1,7.595335841E-1,1.006674916E-1
8.952420380E-1,3.067961633E-1,1.267664731E-1,7.084008306E-2
8.981130920E-1,1.225054115E-1,-4.671184719E-1,5.858954508E-3
8.993864990E-1,-8.841694891E-2,-7.163903713E-1,-9.853696078E-2
9.020586150E-1,-2.663161159E-1,-5.187838078E-1,-1.853560209E-1
9.034778840E-1,-3.925499618E-1,-1.928128600E-1,-1.166464612E-1
9.063206300E-1,-4.293015897E-1,1.012001261E-1,7.989483327E-2
9.079529230E-1,-3.627225459E-1,4.836300611E-1,3.046656251E-1
9.097864230E-1,-3.627225459E-1,5.597964525E-1,3.302319944E-1
9.116103460E-1,-4.490089715E-1,5.411543250E-1,3.494067490E-1
9.140604230E-1,-5.672533512E-1,-1.043959185E-1,2.913498282E-1
9.157336530E-1,-4.655205607E-1,-5.235774517E-1,1.038632840E-1
9.183334230E-1,-2.471413612E-1,-5.779059529E-1,-1.486043930E-1
9.198986150E-1,-2.663161140E-3,-3.584614992E-1,-2.519350350E-1
9.221984230E-1,1.720402092E-1,8.522115648E-3,-8.628641814E-2
9.239561150E-1,3.169161677E-1,3.611246645E-1,2.567287385E-1
9.267920150E-1,4.713795185E-1,6.721818447E-1,4.953479767E-1
9.280798840E-1,6.370281577E-1,7.952198982E-1,5.193164349E-1
9.304396920E-1,6.972155571E-1,5.118595958E-1,4.175836742E-1
9.323503070E-1,5.550028086E-1,1.427454352E-1,2.572613657E-1
9.346278460E-1,2.226402760E-1,-1.443433315E-1,6.870955974E-2
9.362673460E-1,-1.113201380E-1,-8.309062570E-2,-1.486043930E-1
9.386399990E-1,-2.593919039E-1,-4.633900523E-2,-2.300971150E-1
9.403742690E-1,-2.071939409E-1,-4.314320907E-2,-1.219727769E-1
9.427852690E-1,-6.072007492E-2,6.764429063E-2,1.608549356E-1
9.445326150E-1,7.936219871E-2,1.773665249E-1,5.368933082E-1
9.473407840E-1,1.960086524E-1,3.211772442E-1,8.096010089E-1
9.490143840E-1,3.057309091E-1,1.432780623E-1,9.278453588E-1
9.514200530E-1,3.483414650E-1,-4.474110901E-2,8.719189763E-1
9.527471530E-1,4.857605994E-1,-3.893541694E-1,5.960154533E-1
9.554883610E-1,6.274407506E-1,-5.992112756E-1,2.269013226E-1
9.567523070E-1,6.258428693E-1,-2.732403278E-1,-1.081243455E-1
9.595920910E-1,4.404868484E-1,2.998719513E-1,-2.029328793E-1
9.608061920E-1,2.194444835E-1,7.371630073E-1,-9.001484513E-2
9.636957840E-1,1.970739290E-2,1.045557022E0,1.384843793E-2
9.649424990E-1,-1.235706806E-1,1.012001276E0,-5.486112088E-2
9.678003990E-1,-3.989415467E-1,6.865629554E-1,-8.841694891E-2
9.697068460E-1,-7.957525253E-1,2.135855258E-1,-8.309062570E-2
9.718389370E-1,-1.104679227E0,-1.816275865E-1,-1.336906850E-1
9.730507690E-1,-1.170192957E0,-3.840278387E-1,-2.093244642E-1
9.759072070E-1,-1.123321414E0,-4.250405133E-1,-1.672465205E-1
9.771387690E-1,-1.109472990E0,-1.251685768E-1,2.876213938E-2
9.800108610E-1,-1.098820329E0,2.343581766E-1,2.945456207E-1
9.812684610E-1,-9.672601223E-1,5.576659441E-1,4.362258017E-1
9.840070380E-1,-5.853627920E-1,5.454154015E-1,4.612595141E-1
9.854773460E-1,-1.065264493E-1,7.989482954E-3,4.814995229E-1
9.882178220E-1,3.014698327E-1,-2.801645398E-1,3.909520507E-1
9.897961530E-1,6.274407506E-1,-4.314320982E-1,2.593919039E-1
9.917559610E-1,9.337043166E-1,-2.189118415E-1,8.575379103E-2
9.935666920E-1,1.165399313E0,5.006742850E-2,7.403588295E-2
9.959868460E-1,1.209607840E0,2.530003190E-1,2.705771625E-1
9.976151150E-1,1.131310821E0,4.740426838E-1,4.239752591E-1
1.000067269E0,1.143028736E0,5.805691481E-1,3.557983339E-1
1.002002499E0,1.203748822E0,4.516721368E-1,1.597896665E-1
1.004270692E0,1.070058107E0,2.380866110E-1,1.917476021E-2
1.005928422E0,6.801713705E-1,1.299622655E-1,-1.810949668E-2
1.008700207E0,1.320927888E-1,1.906823367E-1,-1.123853996E-1
1.010037730E0,-5.635249019E-1,4.506068528E-1,-2.466087192E-1
1.012273846E0,-7.163903713E-1,3.680488765E-1,-2.151834220E-1
1.014024615E0,-9.683253765E-1,2.306297570E-1,-1.059938148E-1
1.016430038E0,-1.122256160E0,1.438107044E-1,3.941478580E-2
1.018270115E0,-1.177117229E0,-1.171790902E-2,2.354234457E-1
1.020546730E0,-1.025849700E0,-2.476739883E-1,4.825648069E-1
1.022281076E0,-7.765777707E-1,-5.491438508E-1,5.821670294E-1
1.024571422E0,-4.117247164E-1,-4.809668958E-1,4.522047639E-1
1.026292730E0,-4.687163606E-2,-6.285060197E-2,1.294296384E-1
1.029113437E0,2.167813182E-1,3.275688291E-1,-8.362326026E-2
1.030679692E0,3.552657068E-1,6.013417840E-1,-1.262338310E-1
1.033179899E0,4.522047639E-1,7.563377619E-1,-9.960222989E-2
1.034537807E0,5.539374948E-1,8.410263062E-1,-1.304948926E-1
1.037248091E0,5.992112756E-1,6.977482438E-1,-1.363538504E-1
1.038644230E0,5.081311464E-1,3.536677957E-1,-6.764429063E-2
1.041351706E0,2.806971967E-1,4.633900523E-2,2.183792181E-2
1.042567961E0,-1.597896684E-3,-3.249056637E-2,2.290318534E-2
1.045454899E0,-1.832254827E-1,1.171790902E-2,-3.728425596E-3
1.046744115E0,-2.780340314E-1,-1.970739290E-2,4.793690145E-2
1.049557514E0,-3.392867148E-1,5.858954415E-2,1.709749401E-1
1.051380692E0,-4.149205089E-1,2.162486911E-1,3.792341352E-1
1.053595245E0,-4.021373391E-1,3.089267015E-1,3.946804702E-1
1.054777153E0,-3.398193717E-1,3.478088379E-1,4.122573435E-1
1.057663783E0,-2.689792812E-1,1.107875034E-1,4.580637217E-1
1.058870499E0,-8.841694891E-2,-2.545982003E-1,4.713795185E-1
1.061766553E0,2.135855258E-1,-5.219795704E-1,3.451456726E-1
1.063007384E0,5.241101384E-1,-2.460760921E-1,6.924218684E-2
1.065749269E0,6.348975897E-1,2.322276533E-1,-7.882957160E-2
1.067179845E0,5.619270205E-1,6.162554622E-1,-5.326322280E-3
1.069972745E0,4.596616030E-1,8.815063238E-1,7.563377917E-2
1.071777345E0,3.339604139E-1,1.112668753E0,-3.888215125E-2
1.073476269E0,2.577939928E-1,9.965549111E-1,-5.219795927E-2
1.075269807E0,2.343581803E-2,4.681837261E-1,3.462109342E-2
1.077732115E0,-4.207794666E-1,-2.247707993E-1,1.320927888E-1
1.079480230E0,-6.237123609E-1,-2.615224123E-1,6.338323653E-2
1.081863615E0,-7.323693037E-1,-2.913498282E-1,4.420847446E-2
1.083684999E0,-7.792409658E-1,-1.097222418E-1,6.870955974E-2
1.086123653E0,-7.659251690E-1,1.715075821E-1,1.342233270E-1
1.087736499E0,-6.849650741E-1,5.496764779E-1,1.842907518E-1
1.090448668E0,-5.550028086E-1,7.344998717E-1,2.790992856E-1
1.091757499E0,-4.452805519E-1,4.628573954E-1,4.814995229E-1
1.094075769E0,-2.929477394E-1,-1.118527725E-2,5.640575290E-1
1.095816499E0,4.953479767E-2,-3.728425503E-1,3.520699143E-1
1.098252845E0,5.113269091E-1,-4.356931746E-1,-4.314320907E-2
1.099975422E0,7.968178391E-1,-1.794970632E-1,-2.663161159E-1
1.102673999E0,7.520766854E-1,2.865561247E-1,-1.294296384E-1
1.104230845E0,5.278385282E-1,8.080030680E-1,1.315601617E-1
1.106524922E0,4.069310129E-1,1.151550889E0,2.418150306E-1
1.108187153E0,4.308994710E-1,9.720538259E-1,1.933455020E-1
1.110989668E0,4.032025933E-1,4.058657587E-1,1.129180342E-1
1.112536307E0,1.544633508E-2,-3.217098713E-1,9.587380104E-3
1.115062360E0,-1.432780623E-1,-3.669835925E-1,-4.314320907E-2
1.116332307E0,-4.095941782E-1,-2.615224123E-1,-1.193096191E-1
1.119131398E0,-5.949501991E-1,1.864212751E-2,-1.278317273E-1
1.120460345E0,-6.471481323E-1,2.498045117E-1,-2.237055451E-2
1.123235475E0,-5.821670294E-1,3.531351686E-1,1.411475390E-1
1.124486461E0,-3.946804702E-1,4.149205089E-1,3.659183383E-1
1.127339706E0,-3.296993375E-1,3.419498801E-1,4.713795185E-1
1.128610499E0,-2.162486911E-1,-2.237055451E-2,5.352953672E-1
1.131442783E0,6.285060197E-2,-4.862932265E-1,4.165183902E-1
1.133437922E0,4.793690145E-1,-4.016047120E-1,1.597896591E-2
1.135488206E0,8.090683818E-1,-1.049285457E-1,-2.253034264E-1
1.136685345E0,8.926916122E-1,1.459412277E-1,-6.870955974E-2
1.139557898E0,7.925567627E-1,5.342301130E-1,2.109223604E-1
1.140792422E0,7.233145833E-1,9.550095797E-1,2.838929892E-1
1.143662245E0,7.499461770E-1,9.693906307E-1,1.565938741E-1
1.144890038E0,7.392935157E-1,6.114618182E-1,-5.006742850E-2
1.147604730E0,5.597964525E-1,1.635181010E-1,-2.279665917E-1
1.149027807E0,2.199771106E-1,-3.675162420E-2,-4.016047120E-1
1.151870475E0,-1.922802329E-1,2.130528986E-1,-5.672533512E-1
1.153492345E0,-6.077333689E-1,5.044026971E-1,-5.539374948E-1
1.155377345E0,-9.384979606E-1,5.629922748E-1,-3.211772442E-1
1.157191884E0,-1.143028736E0,4.580637217E-1,-3.941478580E-2
1.159656730E0,-1.207477212E0,3.376888335E-1,1.613875628E-1
1.161260769E0,-1.246359468E0,1.214401498E-1,3.334277868E-1
1.163684538E0,-1.263936281E0,-1.736381054E-1,4.942827225E-1
1.165407230E0,-1.178715110E0,-5.289037824E-1,5.624596477E-1
1.167843961E0,-8.612663150E-1,-6.503439546E-1,4.143878818E-1
1.169611499E0,-3.776362538E-1,-4.016047120E-1,8.149272949E-2
1.172338514E0,6.231797114E-2,-1.864212751E-2,-9.534116834E-2
1.173659768E0,4.788363874E-1,6.412891746E-1,1.118527725E-2
1.175969115E0,7.749798894E-1,1.031708598E0,8.575379103E-2
1.177714038E0,1.058340192E0,1.092961311E0,1.267664731E-1
1.180125384E0,1.197889924E0,7.904262543E-1,1.704423130E-1
1.182001922E0,1.147289872E0,2.737729549E-1,1.816275865E-1
1.184286538E0,9.827064872E-1,-6.551376730E-2,5.219795927E-2
1.185997384E0,7.941546440E-1,-9.960222989E-2,-1.352885813E-1
1.188378422E0,5.518069863E-1,-6.977482140E-2,-1.549959779E-1
1.190040307E0,2.780340314E-1,9.054747969E-2,-1.438106969E-2
1.192890475E0,9.321063757E-2,3.158509135E-1,1.976065636E-1
1.194761192E0,1.438106969E-2,3.749730885E-1,4.223773479E-1
1.196971898E0,-2.130528912E-2,3.584614992E-1,5.656554103E-1
1.198229653E0,-5.432848632E-2,4.687163606E-2,6.407565475E-1
1.201041821E0,-5.858954415E-2,-2.716424465E-1,5.363606811E-1
1.202318768E0,-3.781688958E-2,-2.870887816E-1,1.928128600E-1
1.205146244E0,1.065264456E-3,5.858954415E-2,-2.082591951E-1
1.206401845E0,2.609897964E-2,3.483414650E-1,-3.488741219E-1
1.209251052E0,2.450108156E-2,3.568635881E-1,-1.624528319E-1
1.210620192E0,2.663161233E-2,6.338323355E-1,-5.326322280E-4
1.213355321E0,3.302319720E-2,7.334345579E-1,1.358212233E-1
1.215158961E0,-6.977482140E-2,4.591289759E-1,1.928128600E-1
1.217395167E0,-1.331580579E-1,2.918824553E-1,1.571265012E-1
1.218683192E0,-2.577939928E-1,-3.834952042E-2,3.728425596E-3
1.221464937E0,-3.281014562E-1,-7.829693705E-2,-2.524676621E-1
1.222790153E0,-3.616572917E-1,-5.752427876E-2,-3.669835925E-1
1.225569244E0,-4.037352204E-1,4.900216311E-2,-2.636529505E-1
1.226842845E0,-4.303668439E-1,3.131877482E-1,-5.912217870E-2
1.229537499E0,-3.366235793E-1,5.091964006E-1,2.231729031E-1
1.230992153E0,-2.183792144E-1,4.170510471E-1,3.089267015E-1
1.233777898E0,-6.444849819E-2,2.663161233E-2,3.424825370E-1
1.235510768E0,1.976065636E-1,-4.079962969E-1,2.290318608E-1
1.237292038E0,5.502091050E-1,-4.181163013E-1,-8.309062570E-2
1.239068922E0,8.436894417E-1,-1.853560209E-1,-2.817624509E-1
1.241540038E0,8.229168057E-1,1.933455020E-1,-1.549959779E-1
1.243178615E0,5.267732739E-1,6.785734296E-1,1.166464612E-1
1.245648845E0,3.057309091E-1,9.315737486E-1,2.343581766E-1
1.247286730E0,3.339604139E-1,6.908239722E-1,1.283643693E-1
1.249675384E0,4.324973822E-1,2.386192381E-1,-1.177117229E-1
1.251517192E0,3.259709179E-1,-1.251685768E-1,-2.620550692E-1
1.254251244E0,-3.675162420E-2,-3.190467060E-1,-2.221076339E-1
1.255614615E0,-4.394215941E-1,-5.326322280E-4,-2.327602804E-1
1.258011038E0,-6.210491657E-1,3.110572100E-1,-2.556634545E-1
1.259498307E0,-6.237123609E-1,3.153182864E-1,-1.699096859E-1
1.261948192E0,-5.640575290E-1,2.269013226E-1,-1.331580617E-2
1.263571461E0,-3.771036267E-1,1.379517466E-1,1.150485575E-1
1.266087461E0,-4.846953228E-2,9.054748341E-3,2.061286718E-1
1.267725692E0,2.721750736E-1,-1.235706806E-1,3.243730366E-1
1.270268422E0,5.379585624E-1,-4.463458061E-1,4.809668958E-1
1.271832999E0,7.760451436E-1,-3.680488765E-1,3.781688809E-1
1.274671744E0,1.005077004E0,1.438107044E-1,1.544633508E-2
1.276249615E0,1.081776023E0,6.237123609E-1,-2.466087192E-1
1.278740244E0,1.027980208E0,6.599313021E-1,-2.215750068E-1
1.279931999E0,8.910937309E-1,6.364955306E-1,-1.203748807E-1
1.282810936E0,7.861651778E-1,5.022721887E-1,-6.391586363E-2
1.284133884E0,6.838997602E-1,2.577939928E-1,-6.072007492E-2
1.286916282E0,3.888215125E-1,-1.603222936E-1,-2.237055451E-2
1.288285384E0,2.929477207E-2,-1.661812514E-1,-3.621899337E-2
1.291021013E0,-3.840278387E-1,9.054747969E-2,-8.894958347E-2
1.292282153E0,-7.494135499E-1,2.135855258E-1,-1.065264493E-1
1.295126398E0,-9.235842824E-1,2.135855258E-1,-1.384843737E-1
1.296873307E0,-9.299758673E-1,6.604639441E-2,-1.640507281E-1
1.299165744E0,-8.793758154E-1,8.788431436E-2,-1.683117896E-1
1.300425538E0,-7.968178391E-1,8.309062570E-2,-6.551376730E-2
1.303236475E0,-6.535397172E-1,-1.736381054E-1,1.757686287E-1
1.304565768E0,-3.360909224E-1,-4.356931746E-1,2.998719513E-1
1.307341244E0,1.720402092E-1,-4.596616030E-1,1.448759735E-1
1.308579576E0,7.446198463E-1,-1.890844405E-1,-1.651159972E-1
1.311377922E0,1.108407617E0,1.065264493E-1,-2.790992856E-1
1.312820384E0,1.178715110E0,4.351605177E-1,-1.603222936E-1
1.315550667E0,1.082841277E0,7.781757116E-1,-2.077265643E-2
1.317302730E0,9.757822156E-1,7.281082273E-1,-3.355583176E-2
1.319571153E0,9.603359103E-1,4.900216460E-1,-8.468852192E-2
1.320850268E0,8.942894936E-1,-1.400822699E-1,-1.858886480E-1
1.323424038E0,6.876282096E-1,-5.997439027E-1,-2.727077007E-1
1.324931499E0,3.728425503E-1,-5.390238166E-1,-4.032025933E-1
1.327420653E0,8.096009493E-2,-1.965412945E-1,-4.932174385E-1
1.329046653E0,-1.454086006E-1,1.502022892E-1,-4.830974340E-1
1.331468153E0,-2.657834888E-1,4.671184719E-1,-4.383563101E-1
1.333311653E0,-3.004045784E-1,5.848301649E-1,-3.648530841E-1
1.336017975E0,-3.515372574E-1,5.161206126E-1,-2.476739883E-1
1.337353845E0,-6.375607848E-1,-3.621899337E-2,4.154531285E-2
1.339658307E0,-7.233145833E-1,-5.752428174E-1,9.960222989E-2
1.341383615E0,-6.141249537E-1,-8.809736967E-1,-1.001348570E-1
1.343802038E0,-3.291667104E-1,-7.110640407E-1,-4.383563101E-1
1.345492268E0,-5.432848632E-2,-4.612595141E-1,-5.645901561E-1
1.347915884E0,1.027980223E-1,-1.464738697E-1,-3.850930929E-1
1.349635422E0,2.647182047E-1,3.419498801E-1,-1.864212751E-1
1.352055115E0,4.830974340E-1,7.344998717E-1,-1.145159304E-1
1.353758691E0,6.700513363E-1,7.371630073E-1,-1.416801661E-1
1.356562436E0,6.908239722E-1,3.723099232E-1,-1.965412945E-1
1.358120691E0,5.118595958E-1,-5.805691332E-2,-3.137203753E-1
1.360637744E0,2.732403278E-1,-1.970739216E-1,-5.342301130E-1
1.361866345E0,5.752427876E-2,-2.860234976E-1,-6.631271243E-1
1.364707936E0,-7.403588295E-2,-3.797667921E-1,-5.832322836E-1
1.365988999E0,-1.272991002E-1,-3.776362538E-1,-3.536677957E-1
1.368813167E0,-9.427590668E-2,-1.209075153E-1,-1.219727769E-1
1.370099922E0,-2.183792181E-2,9.587380290E-2,1.182443574E-1
1.372917821E0,3.249056637E-2,9.587380104E-3,3.621899188E-1
1.374203191E0,9.001484513E-2,-2.732403278E-1,4.442152679E-1
1.377022936E0,2.189118415E-1,-4.506068528E-1,1.747033745E-1
1.378827961E0,5.571333170E-1,-2.993393242E-1,-5.262406468E-1
1.381070821E0,6.359629035E-1,-2.737729549E-1,-6.285060048E-1
1.382310422E0,6.396912932E-1,-2.141181529E-1,-5.534048676E-1
1.385141051E0,5.933523178E-1,9.906959534E-2,-3.366235793E-1
1.386379961E0,6.530070901E-1,3.547330499E-1,-1.331580579E-1
1.389245436E0,8.372978568E-1,1.688444167E-1,4.367584363E-2
1.390465191E0,8.026767969E-1,-1.954760253E-1,7.616640627E-2
1.393210730E0,5.571333170E-1,-3.430151641E-1,-7.510114461E-2
1.394603653E0,1.901497096E-1,-8.628641814E-2,-3.893541694E-1
1.397454667E0,-2.050634027E-1,1.171790902E-2,-5.992112756E-1
1.399160114E0,-4.783037305E-1,-2.876213938E-2,-6.428871155E-1
1.401027153E0,-5.890912414E-1,-1.486043930E-1,-5.566006899E-1
1.402906461E0,-6.210491657E-1,-1.017327532E-1,-3.829625845E-1
1.405246807E0,-6.615292430E-1,-1.225054115E-1,-9.321063757E-2
1.406862230E0,-6.817692518E-1,-3.259709179E-1,2.093244642E-1
1.409318191E0,-5.299690962E-1,-6.285060048E-1,2.956108749E-1
1.410967038E0,-1.432780623E-1,-7.637946010E-1,4.261057824E-3
1.413421691E0,3.126551211E-1,-4.591289759E-1,-4.868258536E-1
1.415165461E0,5.613943934E-1,-2.077265680E-1,-6.620618701E-1
1.417931667E0,6.002765298E-1,-8.788431436E-2,-4.500742257E-1
1.419345538E0,5.880259871E-1,3.099919558E-1,-2.567287385E-1
1.421602422E0,7.036072016E-1,5.283711553E-1,-2.045307755E-1
1.423463153E0,9.038769007E-1,1.826928556E-1,-2.114549875E-1
1.425747153E0,9.795106649E-1,-3.062635362E-1,-2.583266199E-1
1.427390576E0,8.309062719E-1,-5.763080716E-1,-3.680488765E-1
1.429772922E0,5.736449361E-1,-4.111920893E-1,-5.645901561E-1
1.431480114E0,3.163835406E-1,-1.486043930E-1,-6.924219131E-1
1.433948922E0,1.219727769E-1,-3.195793182E-2,-6.519418359E-1
1.436170961E0,-1.022653878E-1,-2.343581803E-2,-3.861583769E-1
1.438486320E0,-2.103897333E-1,4.793690052E-3,-2.119876295E-1
1.440165345E0,-3.595267534E-1,-1.315601617E-1,-2.290318534E-2
1.442566090E0,-5.315669775E-1,-4.974785149E-1,1.310275346E-1
1.443726576E0,-6.040049195E-1,-8.341020942E-1,8.202536404E-2
1.446636128E0,-5.624596477E-1,-8.596684337E-1,-2.407497615E-1
1.447844999E0,-3.850930929E-1,-5.102616549E-1,-6.253102422E-1
1.450740513E0,-1.736381054E-1,-3.621899188E-1,-6.961503029E-1
1.452026922E0,1.171790902E-2,-2.492718846E-1,-4.878911078E-1
1.454844743E0,2.151834220E-1,9.108011425E-2,-2.700445354E-1
1.456130653E0,4.447479248E-1,2.631203234E-1,-1.155811921E-1
1.458949089E0,6.322344542E-1,1.523328125E-1,-6.444849819E-2
1.460679845E0,7.339671850E-1,-1.699096859E-1,-1.203748807E-1
1.462989705E0,6.977482438E-1,-4.591289759E-1,-2.966761589E-1
1.464192730E0,6.109291911E-1,-3.866910040E-1,-5.635249019E-1
1.467060051E0,4.745753109E-1,-3.110572100E-1,-6.625944972E-1
1.468334768E0,2.961435318E-1,-2.476739883E-1,-5.305017233E-1
1.471164743E0,1.523328125E-1,-1.246359423E-1,-3.041329980E-1
1.472359461E0,7.616640627E-2,-3.568635881E-2,-7.456851006E-2
1.475058614E0,-4.793690052E-3,-1.288969964E-1,1.299622655E-1
1.476493538E0,-9.693906456E-2,-4.367584288E-1,2.689792812E-1
1.479375474E0,-1.123853996E-1,-7.632619739E-1,2.103897333E-1
1.480977576E0,8.255799860E-2,-7.707188129E-1,-2.833603323E-1
1.482861961E0,1.826928556E-1,-6.327670813E-1,-4.490089715E-1
1.484643653E0,3.147856593E-1,-3.824299276E-1,-5.427522659E-1
1.487091422E0,3.083940744E-1,-9.906959534E-2,-3.637878001E-1
1.488761422E0,2.844256163E-1,2.476739883E-1,-1.587243974E-1
1.491158345E0,3.936152160E-1,4.069310129E-1,-9.161274135E-2
1.492835307E0,4.335626364E-1,5.219795927E-2,-1.049285457E-1
1.495201961E0,2.817624509E-1,-3.723099232E-1,-1.597896665E-1
1.496985691E0,5.006742850E-2,-4.367584288E-1,-3.637878001E-1
1.499842435E0,-9.054747969E-2,-3.659183383E-1,-5.736449361E-1
1.501241614E0,-1.480717659E-1,-3.579288721E-1,-6.066681147E-1
1.503358922E0,-1.651159972E-1,-2.790992856E-1,-4.692489803E-1
1.505037114E0,-1.560612470E-1,-6.444849819E-2,-2.434129268E-1
1.507460153E0,-1.965412945E-1,1.581917703E-1,1.491370238E-2
1.509132845E0,-3.110572100E-1,1.225054115E-1,2.599245310E-1
1.511513999E0,-3.813646734E-1,-2.476739883E-1,3.579288721E-1
1.513239461E0,-3.233077526E-1,-6.317018270E-1,1.454086006E-1
1.515771576E0,-1.933455020E-1,-7.707188129E-1,-2.886866629E-1
1.517494576E0,-1.091896072E-1,-6.013417840E-1,-6.556702852E-1
1.520260551E0,-9.480853379E-2,-2.972087860E-1,-7.099987864E-1
1.521788037E0,-4.367584363E-2,-3.888215125E-2,-4.905542731E-1
1.524329128E0,1.139832959E-1,3.206445873E-1,-2.769687474E-1
1.525498384E0,3.036003709E-1,5.613943934E-1,-1.379517466E-1
1.528395191E0,4.186489284E-1,3.398193717E-1,7.456851192E-3
1.529623114E0,3.904194236E-1,-6.711166352E-2,5.486112088E-2
1.532502935E0,3.030677438E-1,-2.950782478E-1,-1.139832959E-1
1.533795345E0,2.242381722E-1,-3.627225459E-1,-3.637878001E-1
1.536606858E0,1.113201380E-1,-4.069310129E-1,-4.436826408E-1
1.537930076E0,-3.621899337E-2,-4.223773479E-1,-2.876214087E-1
1.540711281E0,-1.251685768E-1,-2.929477394E-1,-6.817692518E-2
1.542447999E0,-8.309062570E-2,3.249056637E-2,1.528654546E-1
1.544748705E0,-6.924218684E-2,1.118527725E-2,2.375539690E-1
1.546076845E0,-3.249056637E-2,-2.359560728E-1,3.744404614E-1
1.548817474E0,1.166464612E-1,-5.278385282E-1,3.099919558E-1
1.550060384E0,4.735100567E-1,-5.352953672E-1,-1.848233789E-1
1.552921243E0,6.087986231E-1,-1.997370869E-1,-4.596616030E-1
1.554170499E0,6.279733777E-1,-4.740426689E-2,-4.063983858E-1
1.556854268E0,6.237123609E-1,1.390170157E-1,-2.391518652E-1
1.558273961E0,6.056028605E-1,5.091964006E-1,-1.549959779E-1
1.561127551E0,5.235774517E-1,5.645901561E-1,-6.711166352E-2
1.562890307E0,3.808320463E-1,2.157160491E-1,2.929477207E-2
1.564663153E0,1.757686287E-1,-2.950782478E-1,2.929477207E-2
1.566453076E0,-2.822950855E-2,-4.937500656E-1,-1.784317940E-1
1.569002999E0,-2.657834888E-1,-3.893541694E-1,-4.181163013E-1
1.570556730E0,-5.400890708E-1,-2.231729031E-1,-4.697816372E-1
1.572978922E0,-7.547398806E-1,-1.209075153E-1,-3.270362020E-1
1.574658961E0,-7.968178391E-1,5.006742850E-2,-1.747033745E-1
1.577017537E0,-7.179882526E-1,1.571265012E-1,-1.704423130E-2
1.578740037E0,-6.876282096E-1,1.438106969E-2,2.146507949E-1
1.581602551E0,-6.737797856E-1,-2.530003190E-1,3.653857112E-1
1.582940307E0,-5.336974859E-1,-5.518069863E-1,2.684466541E-1
1.585263499E0,-2.348908186E-1,-5.289037824E-1,-1.406149119E-1
1.587078461E0,7.669904083E-2,-2.269013226E-1,-5.155879855E-1
1.589476345E0,1.928128600E-1,-6.018744037E-2,-4.889563918E-1
1.591071768E0,1.805623323E-1,2.109223604E-1,-2.194444835E-1
1.593456037E0,2.418150306E-1,5.550028086E-1,-1.331580617E-2
1.595177576E0,4.101268053E-1,6.034722924E-1,8.096009493E-2
1.597614230E0,5.512743592E-1,-1.331580617E-2,1.390170157E-1
1.599325884E0,4.048005044E-1,-3.526025414E-1,3.994741663E-2
1.602145127E0,1.848233789E-1,-2.487392575E-1,-2.162486911E-1
1.603753307E0,-5.699164793E-2,-1.081243455E-1,-3.792341352E-1
1.606217666E0,-2.908172011E-1,-2.822950855E-2,-3.318298757E-1
1.607440922E0,-4.878911078E-1,2.237055451E-2,-1.565938741E-1
1.610287012E0,-5.619270205E-1,1.507349163E-1,2.663161140E-3
1.611529614E0,-5.320996046E-1,1.315601617E-1,1.475391239E-1
1.614391281E0,-4.889563918E-1,-2.103897333E-1,3.584614992E-1
1.615659230E0,-4.617921412E-1,-4.996090233E-1,4.388889670E-1
1.618495973E0,-3.632551730E-1,-5.603290796E-1,2.514024079E-1
1.619839384E0,-1.129180342E-1,-3.691141307E-1,-1.262338310E-1
1.622600973E0,1.603222936E-1,-6.338323653E-2,-3.771036267E-1
1.624636576E0,2.913498282E-1,2.231729031E-1,-1.390170157E-1
1.626646704E0,2.956108749E-1,3.691141307E-1,-1.757686399E-2
1.627982114E0,3.968110085E-1,5.576659441E-1,1.571265012E-1
1.630716473E0,5.262406468E-1,3.904194236E-1,2.279665917E-1
1.631970614E0,5.944175720E-1,5.858954508E-3,2.210423797E-1
1.634820243E0,5.352953672E-1,-4.261057973E-1,1.288969964E-1
1.636093768E0,4.277036786E-1,-3.787015080E-1,-1.454086006E-1
1.638750307E0,3.243730366E-1,-1.821602285E-1,-3.557983339E-1
1.640171576E0,1.688444167E-1,-5.219795927E-2,-3.185140789E-1
1.643028627E0,1.597896684E-3,1.326254308E-1,-1.619201899E-1
1.644620268E0,-1.374191195E-1,3.723099232E-1,9.054747969E-2
1.646521922E0,-1.928128600E-1,3.547330499E-1,1.800296903E-1
1.648443499E0,-3.925499618E-1,1.118527651E-1,3.691141307E-1
1.650760845E0,-5.715143681E-1,-3.605920076E-1,4.399542212E-1
1.652643422E0,-5.837649107E-1,-7.254450917E-1,2.194444835E-1
1.654821537E0,-4.335626364E-1,-4.016047120E-1,-4.239752591E-1
1.655781960E0,-4.388889670E-1,-1.763012707E-1,-5.166532397E-1
1.657892268E0,-5.390238166E-1,1.054611802E-1,-3.728425503E-1
1.659764460E0,-6.407565475E-1,3.387540877E-1,-6.498113275E-2
1.662369666E0,-5.262406468E-1,5.283711553E-1,7.776430249E-2
1.663680537E0,-2.482066154E-1,4.617921412E-1,5.273059011E-2
1.666087845E0,-2.716424316E-2,1.022653878E-1,5.326322280E-4
1.667739037E0,-3.195793368E-3,-2.780340314E-1,-2.290318534E-2
1.670266114E0,-1.390170157E-1,-2.343581766E-1,-1.518001854E-1
1.671882884E0,-3.020024598E-1,9.321063757E-2,-3.185140789E-1
1.674215268E0,-4.143878818E-1,1.976065636E-1,-2.908172011E-1
1.675974499E0,-4.207794666E-1,-9.054748341E-3,-1.027980223E-1
1.678391460E0,-2.567287385E-1,-4.367584363E-2,5.486112088E-2
1.680071384E0,-6.657902896E-2,-1.709749401E-1,2.604571581E-1
1.682916819E0,2.237055451E-2,-3.291667104E-1,5.182511806E-1
1.684605999E0,1.448759735E-1,-6.183860302E-1,6.599313021E-1
1.687011627E0,2.487392575E-1,-6.253102422E-1,5.278385282E-1
1.688270422E0,5.486112237E-1,-3.334277868E-1,6.338323653E-2
1.691080935E0,7.669904232E-1,1.331580617E-2,-2.838929892E-1
1.692348960E0,7.350324988E-1,2.663161159E-1,-2.577939928E-1
1.695185165E0,5.555354357E-1,5.193164349E-1,-5.699164793E-2
1.696393960E0,4.436826408E-1,7.254450917E-1,6.018744037E-2
1.699290089E0,3.893541694E-1,5.890912414E-1,9.640643001E-2
1.700584922E0,2.892192900E-1,1.267664731E-1,8.894958347E-2
1.703394896E0,-7.350324839E-2,-3.904194236E-1,-5.432848632E-2
1.705227614E0,-3.595267534E-1,-2.199771106E-1,-2.668487430E-1
1.707436435E0,-5.842975378E-1,-2.663161233E-2,-3.398193717E-1
1.708766960E0,-7.185208797E-1,8.309062570E-2,-2.284992188E-1
1.711506704E0,-7.462177277E-1,2.125202566E-1,-4.580637068E-2
1.712881614E0,-7.089334726E-1,3.147856593E-1,1.507349163E-1
1.715611704E0,-7.174556255E-1,3.510046303E-1,3.424825370E-1
1.716942114E0,-7.611314654E-1,9.374327213E-2,5.241101384E-1
1.719716819E0,-7.472830415E-1,-3.398193717E-1,5.624596477E-1
1.721164191E0,-6.242449880E-1,-5.661880374E-1,3.046656251E-1
1.723821012E0,-4.165183902E-1,-3.834952116E-1,-1.336906850E-1
1.725475422E0,-2.673813701E-1,-9.321063757E-2,-3.664509654E-1
1.727344153E0,-2.636529505E-1,1.129180342E-1,-2.359560728E-1
1.729103960E0,-2.583266199E-1,4.186489284E-1,-4.420847446E-2
1.731652460E0,-9.321063757E-2,8.021441102E-1,-1.278317347E-2
1.733283576E0,1.225054115E-1,8.559399843E-1,-3.994741663E-2
1.735810460E0,1.970739216E-1,4.974785149E-1,5.006742850E-2
1.737439653E0,3.834952042E-2,3.621899337E-2,1.624528319E-1
1.739851730E0,-1.832254827E-1,-9.321063757E-2,9.693906456E-2
1.741459768E0,-3.238403797E-1,-1.363538504E-1,-1.065264456E-2
1.744297165E0,-4.079962969E-1,-2.157160491E-1,-2.130528912E-3
1.745649768E0,-4.143878818E-1,-2.689792812E-1,1.145159304E-1
1.748037730E0,-2.913498282E-1,-1.656486243E-1,2.641855776E-1
1.749519576E0,-1.017327532E-1,5.965480953E-2,4.165183902E-1
1.751965383E0,3.888215125E-2,1.209075153E-1,6.359629035E-1
1.753622307E0,2.167813182E-1,-6.924218684E-2,7.840346098E-1
1.755997268E0,5.033374429E-1,-2.434129268E-1,6.348975897E-1
1.757748576E0,8.053399324E-1,-1.075917110E-1,2.247707993E-1
1.760176460E0,8.980179429E-1,2.753708661E-1,-1.246359423E-1
1.761927537E0,6.087986231E-1,5.075985193E-1,-3.408846259E-2
1.764718704E0,4.223773479E-1,6.024070382E-1,8.149272949E-2
1.766307307E0,3.589941263E-1,6.082659960E-1,1.043959185E-1
1.768786588E0,2.924150825E-1,3.424825370E-1,1.448759735E-1
1.770121576E0,1.001348570E-1,-8.362326026E-2,2.540655732E-1
1.772856242E0,-1.789644361E-1,-2.588592768E-1,2.322276533E-1
1.774105076E0,-4.170510471E-1,3.515372798E-2,5.858954508E-3
1.776961165E0,-6.226470470E-1,2.226402760E-1,-1.411475390E-1
1.778187307E0,-8.143946528E-1,3.653857112E-1,-1.390170157E-1
1.781066088E0,-9.491506219E-1,5.044026971E-1,-6.498113275E-2
1.782331383E0,-9.470201135E-1,5.145227313E-1,7.936219871E-2
1.785171511E0,-9.337043166E-1,2.897519469E-1,3.227751255E-1
1.786988653E0,-9.555422068E-1,-1.012001187E-2,5.571333170E-1
1.789210011E0,-9.070726633E-1,-3.994741738E-1,6.524744630E-1
1.790447537E0,-6.535397172E-1,-5.416869521E-1,4.010720551E-1
1.793280511E0,-2.008023560E-1,-3.089267015E-1,-5.326322466E-2
1.794499422E0,1.672465205E-1,-8.149272949E-2,-2.370213419E-1
1.797384588E0,2.572613657E-1,3.504720032E-1,-9.800432622E-2
1.798668191E0,2.061286718E-1,9.416937828E-1,1.182443574E-1
1.801375537E0,2.625876963E-1,1.242630959E0,2.492718846E-1
1.802968922E0,3.936152160E-1,9.747169614E-1,2.961435318E-1
1.805594319E0,4.644553065E-1,2.647182047E-1,2.972087860E-1
1.807264114E0,3.254382908E-1,-3.723099232E-1,4.154531285E-2
1.809077114E0,2.407497615E-1,-3.153182864E-1,-8.894958347E-2
1.810885345E0,5.965480953E-2,-1.320927888E-1,-2.082591951E-1
1.813325691E0,-1.166464612E-1,7.776430249E-2,-9.374327213E-2
1.815016999E0,-2.183792144E-1,3.978762627E-1,9.321063757E-2
1.817745576E0,-1.539307088E-1,6.301039457E-1,3.771036267E-1
1.819352576E0,-1.358212233E-1,4.436826408E-1,5.720469952E-1
1.821628922E0,-1.470064968E-1,2.769687586E-2,6.865629554E-1
1.823425730E0,-1.288969964E-1,-2.790992856E-1,5.368933082E-1
1.826061665E0,-1.118527651E-1,-1.928128600E-1,1.336906850E-1
1.827377883E0,-1.454086006E-1,4.261057824E-2,-1.906823367E-1
1.829722691E0,-2.274339646E-1,2.146507949E-1,-2.151834220E-1
1.831451730E0,-2.652508616E-1,3.872236311E-1,-6.657902896E-2
1.834015999E0,-1.826928556E-1,6.865629554E-1,5.326322466E-2
1.835799383E0,-5.858954415E-2,7.536746264E-1,2.008023560E-1
1.837930114E0,-5.273059011E-2,5.049353242E-1,3.776362538E-1
1.839726845E0,-1.241033077E-1,2.269013226E-1,3.802994192E-1
1.842098806E0,-1.581917703E-1,1.741707325E-1,1.043959185E-1
1.843800999E0,-1.667138934E-1,1.858886480E-1,-2.077265680E-1
1.846607934E0,-2.290318608E-1,1.597896665E-1,-2.908172011E-1
1.848185999E0,-3.520699143E-1,2.471413612E-1,-4.793690145E-2
1.850683550E0,-3.275688291E-1,3.813646734E-1,3.036003746E-2
1.851903037E0,-2.082591951E-1,5.347627401E-1,2.242381722E-1
1.854753934E0,-1.496696621E-1,3.089267015E-1,4.916195571E-1
1.856024614E0,-9.747169912E-2,3.089267015E-2,6.098638773E-1
1.858858857E0,4.687163606E-2,-1.922802329E-1,4.415521026E-1
1.860090153E0,2.407497615E-1,-1.059938148E-1,4.154531285E-2
1.862964165E0,2.918824553E-1,1.869539171E-1,-2.269013226E-1
1.864222306E0,8.628641814E-2,3.552657068E-1,5.858954508E-3
1.867046396E0,2.343581803E-2,4.213120937E-1,2.055960447E-1
1.869292883E0,1.006674916E-1,4.868258536E-1,2.412824035E-1
1.871056242E0,1.720402092E-1,2.700445354E-1,2.354234457E-1
1.872292230E0,1.326254308E-1,-1.225054078E-2,2.008023560E-1
1.875125165E0,-3.568635881E-2,-4.740426689E-2,5.805691332E-2
1.876347576E0,-2.386192381E-1,2.934803665E-1,-2.093244642E-1
1.879228549E0,-4.053331316E-1,5.171858668E-1,-3.467435837E-1
1.880603383E0,-5.438175201E-1,3.456783295E-1,-2.380866110E-1
1.883202076E0,-6.098638773E-1,3.424825370E-1,-1.267664731E-1
1.884651691E0,-6.109291911E-1,3.611246645E-1,-1.225054078E-2
1.887437126E0,-6.226470470E-1,2.269013226E-1,2.039981484E-1
1.889164114E0,-6.082659960E-1,-1.225054115E-1,4.458131790E-1
1.890958076E0,-4.569984376E-1,-4.639226794E-1,5.225121975E-1
1.892814845E0,-1.858886480E-1,-5.028048158E-1,2.886866629E-1
1.895207153E0,1.496696621E-1,-2.338255495E-1,-6.657902896E-2
1.896866614E0,3.914846778E-1,7.456851192E-3,-2.135855258E-1
1.899325422E0,5.091964006E-1,2.993393242E-1,-1.395496428E-1
1.901033768E0,5.448827744E-1,6.764429212E-1,-2.450108156E-2
1.903506922E0,5.869607329E-1,8.676578999E-1,4.101268202E-2
1.905332230E0,6.418218613E-1,6.913566589E-1,4.314320907E-2
1.907911203E0,6.705839634E-1,1.571265012E-1,1.544633508E-2
1.909259345E0,6.205165386E-1,-2.801645398E-1,-8.096009493E-2
1.911558922E0,4.383563101E-1,-2.838929892E-1,-2.269013226E-1
1.913342691E0,1.480717659E-1,-9.161274135E-2,-2.498045117E-1
1.915809153E0,-1.454086006E-1,-3.195793368E-3,-1.113201380E-1
1.917458691E0,-2.769687474E-1,9.321063757E-2,3.195793368E-3
1.919872076E0,-2.173139453E-1,2.263686955E-1,7.456851006E-2
1.921546883E0,-3.392867148E-1,1.235706806E-1,2.386192381E-1
1.923998614E0,-5.416869521E-1,-1.411475390E-1,3.739078343E-1
1.925631037E0,-5.518069863E-1,-3.259709179E-1,2.221076339E-1
1.928461472E0,-4.048005044E-1,-3.275688291E-1,-1.912149638E-1
1.930088306E0,-2.535329461E-1,1.438106969E-2,-5.896238685E-1
1.932542549E0,-2.221076339E-1,1.539307088E-1,-5.869607329E-1
1.933896960E0,-2.370213419E-1,2.620550692E-1,-3.307646215E-1
1.936611395E0,-9.693906456E-2,4.926848114E-1,-1.427454352E-1
1.937994499E0,1.581917703E-1,5.267732739E-1,-4.687163606E-2
1.940715203E0,3.627225459E-1,2.348908186E-1,6.711166352E-2
1.942081268E0,4.154531360E-1,-2.013349831E-1,1.528654546E-1
1.944818780E0,3.877562582E-1,-2.519350350E-1,3.994741663E-2
1.946204922E0,3.233077526E-1,-1.667138934E-1,-1.411475390E-1
1.948922395E0,2.375539690E-1,-1.145159304E-1,-2.135855258E-1
1.950764499E0,1.917476058E-1,-3.089267015E-2,-1.869539171E-1
1.952961318E0,2.460760921E-1,4.101268202E-2,-1.805623323E-1
1.954228268E0,3.728425503E-1,1.475391239E-1,-8.575379103E-2
1.957030395E0,3.312972486E-1,7.190535218E-2,1.549959779E-1
1.958295806E0,2.348908186E-1,-8.415589482E-2,3.483414650E-1
1.961134357E0,3.259709179E-1,-3.488741219E-1,2.743056118E-1
1.962406114E0,5.550028086E-1,-3.126551211E-1,-1.230380461E-1
1.965189922E0,6.759102941E-1,-8.841694891E-2,-4.266384244E-1
1.966608960E0,5.134574771E-1,4.846953228E-2,-3.557983339E-1
1.969343434E0,2.380866110E-1,2.439455539E-1,-1.422128081E-1
1.971043076E0,4.261057824E-2,5.118595958E-1,-5.006742850E-2
1.972970229E0,3.462109342E-2,3.121224940E-1,-6.870955974E-2
1.974648614E0,-2.982740477E-2,-1.773665249E-1,-4.687163606E-2
1.977464653E0,-2.013349831E-1,-4.016047120E-1,-1.267664731E-1
1.978793153E0,-4.372910559E-1,-1.645833552E-1,-3.025351167E-1
1.981225191E0,-6.780408025E-1,3.089267015E-2,-3.962783813E-1
1.982874691E0,-7.803062201E-1,1.267664731E-1,-3.904194236E-1
1.985704934E0,-7.009440064E-1,5.060006306E-2,-3.115898669E-1
1.987018999E0,-5.443501472E-1,8.788431436E-2,-1.826928556E-1
1.989808857E0,-4.687163532E-1,7.989482954E-3,8.468852192E-2
1.991167729E0,-4.287689328E-1,-2.545982003E-1,3.573962152E-1
1.993543999E0,-2.759034932E-1,-4.649879336E-1,3.478088379E-1
1.995184614E0,9.054747969E-2,-4.836300611E-1,-2.396845073E-2
1.997518268E0,5.336974859E-1,-2.492718846E-1,-4.836300611E-1
1.999227768E0,7.558051348E-1,-7.563377917E-2,-5.709817410E-1
2.002017587E0,7.307714224E-1,1.635181010E-1,-3.307646215E-1
2.003298729E0,6.775081754E-1,5.368933082E-1,-9.693906456E-2
2.005726537E0,7.355651259E-1,6.279733777E-1,2.663161233E-2
2.007471076E0,8.053399324E-1,2.876214087E-1,5.326322466E-2
2.010225203E0,6.993461251E-1,-2.098570913E-1,1.278317347E-2
2.011844729E0,2.024002522E-1,-3.078614175E-1,-3.344930410E-1
2.014293164E0,-3.728425596E-3,-1.549959779E-1,-4.814995229E-1
2.015512614E0,-4.026699662E-1,5.379585549E-2,-5.954828262E-1
2.018362741E0,-7.211840153E-1,-2.769687586E-2,-4.628573954E-1
2.019649960E0,-8.783105612E-1,1.331580617E-2,-3.083940744E-1
2.022467126E0,-9.134642482E-1,9.480853379E-2,-1.741707325E-1
2.023737614E0,-9.837717414E-1,1.544633508E-2,2.130528912E-2
2.026571818E0,-1.068460226E0,-2.332929224E-1,1.880191714E-1
2.027897768E0,-9.342369437E-1,-4.873584807E-1,-4.793690052E-3
2.030675626E0,-6.066681147E-1,-2.151834220E-1,-4.303668439E-1
2.032404152E0,-3.067961633E-1,-1.049285457E-1,-5.853627920E-1
2.034712241E0,-1.272991002E-1,-6.924218684E-2,-3.776362538E-1
2.035934306E0,5.539375171E-2,1.699096859E-1,-1.486043930E-1
2.038779818E0,3.664509654E-1,3.680488765E-1,-2.237055451E-2
2.040033076E0,6.604639888E-1,3.419498801E-1,2.130528912E-2
2.042883049E0,7.866978049E-1,1.065264456E-2,5.379585549E-2
2.044128576E0,7.781757116E-1,-2.663161159E-1,-5.273059011E-2
2.046836883E0,7.243798375E-1,-7.776430249E-2,-3.824299276E-1
2.048262883E0,6.306365728E-1,2.876213938E-2,-5.656554103E-1
2.051088472E0,4.889563918E-1,-9.747169912E-2,-4.319647253E-1
2.052823076E0,3.643204570E-1,-8.415589482E-2,-2.338255495E-1
2.054581729E0,3.478088379E-1,1.043959185E-1,-8.894958347E-2
2.056377845E0,3.147856593E-1,1.315601617E-1,1.022653878E-1
2.058848268E0,1.896170676E-1,-4.261057824E-2,3.121224940E-1
2.060512422E0,1.075917110E-1,-3.653857112E-1,4.032025933E-1
2.062952691E0,1.219727769E-1,-5.086637735E-1,1.906823367E-1
2.064897152E0,1.427454352E-1,-2.961435318E-1,-1.960086524E-1
2.067154037E0,5.645901710E-2,-9.587380290E-2,-3.643204570E-1
2.069042191E0,-1.310275346E-1,-9.587380104E-3,-2.652508616E-1
2.071563241E0,-2.503371537E-1,2.338255495E-1,-1.938781291E-1
2.072904768E0,-2.263686955E-1,4.218447208E-1,-2.008023560E-1
2.075254191E0,-1.837581247E-1,3.296993375E-1,-1.890844405E-1
2.076953076E0,-1.944107562E-1,5.166532472E-2,-1.235706806E-1
2.079358499E0,-2.577939928E-1,-1.709749401E-1,-1.320927888E-1
2.081104768E0,-3.792341352E-1,6.977482140E-2,-3.185140789E-1
2.083420499E0,-5.070658922E-1,5.912217870E-2,-2.567287385E-1
2.085157537E0,-6.322344542E-1,-1.065264456E-2,-1.129180342E-1
2.087619999E0,-6.013417840E-1,-8.042746782E-2,-3.195793182E-2
2.089302537E0,-4.356931746E-1,-1.278317273E-1,-1.438106969E-2
2.092103972E0,-2.231729031E-1,-3.083940744E-1,7.137271762E-2
2.093630576E0,4.527373984E-2,-5.608617067E-1,1.896170676E-1
2.096176664E0,3.882888854E-1,-6.093312502E-1,1.693770438E-1
2.097352114E0,7.659251690E-1,-3.275688291E-1,-4.580637068E-2
2.100245395E0,1.065264463E0,1.507349163E-1,-2.530003190E-1
2.101552960E0,1.145159245E0,3.797667921E-1,-2.221076339E-1
2.104349472E0,1.021055937E0,6.130596995E-1,-1.219727769E-1
2.105571422E0,8.335694075E-1,7.781757116E-1,-9.161274135E-2
2.108454049E0,6.194512844E-1,5.448827744E-1,-7.989483327E-2
2.109715883E0,3.802994192E-1,3.781688958E-2,-6.817692518E-2
2.112558664E0,1.118527651E-1,-6.050702333E-1,-6.498113275E-2
2.114432576E0,-2.684466541E-1,-6.551376581E-1,-2.844256163E-1
2.116605972E0,-3.872236311E-1,-4.889563918E-1,-3.478088379E-1
2.118039922E0,-5.912217498E-1,-1.496696621E-1,-3.249056637E-1
2.120675241E0,-6.977482438E-1,1.288969964E-1,-1.704423130E-1
2.122089883E0,-6.210491657E-1,3.515372574E-1,-3.568635881E-2
2.124779741E0,-4.383563101E-1,4.319647253E-1,9.321063757E-2
2.126013652E0,-3.259709179E-1,1.539307088E-1,2.988066673E-1
2.128708460E0,-2.892192900E-1,-3.589941263E-1,4.756405652E-1
2.130168191E0,-2.284992188E-1,-7.099987864E-1,3.648530841E-1
2.132987856E0,-2.077265643E-2,-6.301039457E-1,-7.936219871E-2
2.134591037E0,3.978762627E-1,-2.300971150E-1,-5.587311983E-1
2.136535883E0,4.756405652E-1,2.130528912E-2,-3.989415467E-1
2.138344691E0,4.442152679E-1,5.022721887E-1,-1.438107044E-1
2.140843460E0,4.783037305E-1,8.149272799E-1,2.663161233E-2
2.142408383E0,5.491438508E-1,6.625944972E-1,9.001484513E-2
2.144831229E0,5.459480286E-1,1.842907518E-1,4.367584363E-2
2.146510999E0,4.090615511E-1,-2.082591951E-1,-1.331580579E-1
2.148919960E0,1.731054783E-1,-2.913498282E-1,-3.360909224E-1
2.150658114E0,-8.202536404E-2,-2.327602804E-1,-4.223773479E-1
2.153473125E0,-2.844256163E-1,-1.352885813E-1,-3.249056637E-1
2.154900152E0,-3.350256681E-1,-8.362326026E-2,-1.400822699E-1
2.157122922E0,-2.508697808E-1,1.438106969E-2,3.941478580E-2
2.158832152E0,-2.226402760E-1,2.929477207E-2,2.354234457E-1
2.161264229E0,-2.934803665E-1,1.065264456E-3,3.536677957E-1
2.162974075E0,-3.073287904E-1,-2.316950262E-1,3.046656251E-1
2.165355729E0,-1.938781291E-1,-3.249056637E-1,-4.261057824E-2
2.167143845E0,2.663161140E-3,-5.379585549E-2,-5.113269091E-1
2.169678883E0,9.374327213E-2,6.604639441E-2,-6.439523697E-1
2.171214614E0,3.249056637E-2,1.454086006E-1,-3.834952116E-1
2.174020241E0,-2.503371425E-2,2.988066673E-1,-5.379585549E-2
2.175675960E0,1.267664731E-1,4.005394280E-1,1.885518134E-1
2.178100625E0,1.763012707E-1,3.121224940E-1,2.215750068E-1
2.179500768E0,1.938781291E-1,-1.235706806E-1,2.801645398E-1
2.182170587E0,1.427454352E-1,-4.724447727E-1,1.720402092E-1
2.183495114E0,1.012001261E-1,-2.157160491E-1,-3.478088379E-1
2.186275048E0,7.669904083E-2,2.503371425E-2,-4.905542731E-1
2.187524268E0,3.408846259E-2,1.198422536E-1,-3.526025414E-1
2.190379356E0,1.193096191E-1,2.663161159E-1,-1.422128081E-1
2.191639575E0,2.615224123E-1,3.526025414E-1,5.060006306E-2
2.194482587E0,2.609897852E-1,3.573962152E-1,2.279665917E-1
2.196252845E0,1.608549356E-1,8.522115648E-2,3.616572917E-1
2.198521702E0,1.150485575E-1,-2.961435318E-1,2.817624509E-1
2.199737960E0,1.454086006E-1,-3.946804702E-1,-5.273059011E-2
2.202590471E0,7.510114461E-2,-3.185140789E-1,-3.296993375E-1
2.203955037E0,-1.438107044E-1,-1.294296384E-1,-3.547330499E-1
2.206694240E0,-3.424825370E-1,5.379585549E-2,-2.311623842E-1
2.208038960E0,-2.961435318E-1,2.269013226E-1,-1.523328125E-1
2.210627537E0,-1.214401498E-1,3.153182864E-1,-1.241033077E-1
2.212211383E0,-4.633900523E-2,2.572613657E-1,-4.687163606E-2
2.214902856E0,-1.027980223E-1,9.161274135E-2,5.699164793E-2
2.216634922E0,-1.896170676E-1,-5.858954508E-3,-9.267801046E-2
2.218484806E0,-1.800296903E-1,1.970739290E-2,-2.039981484E-1
2.220273152E0,-2.226402760E-1,6.924218964E-3,-3.270362020E-1
2.222664999E0,-4.037352204E-1,3.462109342E-2,-2.759034932E-1
2.224371960E0,-5.448827744E-1,8.149272949E-2,-1.507349163E-1
2.226732806E0,-4.772384763E-1,1.225054078E-2,-2.024002373E-2
2.228419614E0,-2.833603323E-1,-1.747033745E-1,1.331580579E-1
2.230815614E0,-7.936219871E-2,-4.767058492E-1,3.296993375E-1
2.232580883E0,1.677791476E-1,-7.297061682E-1,4.053331316E-1
2.235374933E0,7.440872192E-1,-4.522047639E-1,1.864212751E-2
2.236746652E0,1.156344533E0,-1.432780623E-1,-2.380866110E-1
2.238981768E0,1.347559571E0,1.906823367E-1,-2.471413612E-1
2.240600883E0,1.312938452E0,5.747101903E-1,-1.017327532E-1
2.243077999E0,1.207477212E0,7.584682703E-1,4.154531285E-2
2.244748422E0,1.078580260E0,6.418218613E-1,9.001484513E-2
2.247123345E0,8.799084425E-1,1.731054783E-1,6.444849819E-2
2.248882383E0,5.624596477E-1,-3.078614175E-1,-5.912217870E-2
2.251311306E0,1.001348570E-1,-3.994741738E-1,-3.371562064E-1
2.253124614E0,-4.133225977E-1,-2.423476577E-1,-5.619270205E-1
2.255792702E0,-9.395632744E-1,-2.024002373E-2,-6.125270724E-1
2.257394345E0,-1.353951097E0,2.093244642E-1,-5.161206126E-1
2.259860856E0,-1.556884050E0,2.785666585E-1,-3.611246645E-1
2.261049306E0,-1.633050442E0,2.833603323E-1,-1.832254827E-1
2.263930163E0,-1.675128341E0,1.033306494E-1,6.444849819E-2
2.265191883E0,-1.662345171E0,-3.579288721E-1,3.254382908E-1
2.268034779E0,-1.533448219E0,-8.117315173E-1,3.957457542E-1
2.269318306E0,-1.074319243E0,-9.065400362E-1,1.262338310E-1
2.272138509E0,-3.728425503E-1,-7.856325507E-1,-2.418150306E-1
2.273449768E0,3.025351167E-1,-5.310343504E-1,-3.408846259E-1
2.276173240E0,7.574030161E-1,-8.255799860E-2,-1.613875628E-1
2.277952652E0,1.282578349E0,8.186557293E-1,9.693906456E-2
2.280178202E0,1.456216455E0,9.725864530E-1,1.230380461E-1
2.281414422E0,1.722532630E0,8.314388990E-1,1.326254308E-1
2.284247048E0,1.807221174E0,1.262338310E-1,1.177117229E-1
2.285740691E0,1.657551527E0,-4.266384244E-1,-8.202536404E-2
2.288351702E0,1.319862604E0,-4.948153496E-1,-4.026699662E-1
2.289663191E0,9.310411215E-1,-4.356931746E-1,-5.811017752E-1
2.292361075E0,5.842975378E-1,-2.833603323E-1,-5.113269091E-1
2.293717614E0,2.918824553E-1,-2.338255495E-1,-2.141181529E-1
2.296560163E0,1.225054115E-1,-7.456851006E-2,9.587380290E-2
2.298280268E0,-1.629854590E-1,8.841694891E-2,4.756405652E-1
2.300152191E0,-3.435477912E-1,-1.848233789E-1,5.629922748E-1
2.302516768E0,-4.234426320E-1,-5.161206126E-1,3.568635881E-1
2.304450229E0,-4.378236830E-1,-6.380934119E-1,-8.628641814E-2
2.306000152E0,-4.804342687E-1,-3.653857112E-1,-5.033374429E-1
2.308401614E0,-6.002765298E-1,-1.592570394E-1,-5.864281058E-1
2.310073922E0,-6.466155052E-1,-1.278317347E-2,-4.143878818E-1
2.312588652E0,-5.091964006E-1,2.428802997E-1,-2.593919039E-1
2.314251383E0,-2.609897852E-1,4.985437691E-1,-1.741707325E-1
2.317041279E0,-6.711166352E-2,3.882888854E-1,-2.396845073E-2
2.318383114E0,-1.544633508E-2,6.498113275E-2,1.496696621E-1
2.320721345E0,-3.355583176E-2,-2.508697808E-1,1.869539171E-1
2.322709306E0,4.687163606E-2,-4.266384244E-1,4.846953228E-2
2.324886883E0,1.960086524E-1,-5.757754445E-1,-7.616640627E-2
2.326545845E0,3.020024598E-1,-7.025418878E-1,-2.876213938E-2
2.328894652E0,4.277036786E-1,-5.603290796E-1,4.953479767E-2
2.330647652E0,6.753776670E-1,-8.096009493E-2,1.597896591E-2
2.333154229E0,9.614011645E-1,2.258360684E-1,4.633900523E-2
2.334776114E0,1.129180312E0,2.274339646E-1,1.965412945E-1
2.337584009E0,1.162736177E0,1.251685768E-1,2.641855776E-1
2.339178229E0,1.164334059E0,8.628641814E-2,-8.415589482E-2
2.341656048E0,1.120658159E0,1.422128081E-1,-2.689792812E-1
2.342924691E0,8.825715780E-1,2.380866110E-1,-5.038700700E-1
2.345724894E0,4.569984376E-1,1.667138934E-1,-4.628573954E-1
2.346993845E0,-7.563377917E-2,9.747169912E-2,-2.950782478E-1
2.349828625E0,-7.440872192E-1,1.225054078E-2,-5.326322280E-3
2.351175614E0,-9.752495885E-1,-2.822950780E-1,1.123853996E-1
2.353933086E0,-1.059405446E0,-5.544701219E-1,1.177117229E-1
2.355317421E0,-1.128115058E0,-6.386260390E-1,1.171790902E-2
2.358037086E0,-1.152083516E0,-2.689792812E-1,-2.258360684E-1
2.359909191E0,-1.099885583E0,2.210423797E-1,-4.431500137E-1
2.362083586E0,-9.757822156E-1,4.772384763E-1,-4.538026452E-1
2.363310883E0,-7.632619739E-1,4.388889670E-1,-2.833603323E-1
2.366153586E0,-4.452805519E-1,3.648530841E-1,-9.427590668E-2
2.367504768E0,-1.406149119E-1,6.231797114E-2,1.123853996E-1
2.370258624E0,1.043959185E-1,-3.408846259E-1,3.046656251E-1
2.371538537E0,3.414172530E-1,-7.824367285E-1,3.637878001E-1
2.374320114E0,6.125270724E-1,-7.952198982E-1,1.443433315E-1
2.375614729E0,8.724516034E-1,-4.399542212E-1,-1.874865443E-1
2.378466394E0,9.560748339E-1,6.604639441E-2,-3.249056637E-1
2.380174460E0,8.548747301E-1,4.165183902E-1,-1.741707325E-1
2.382084229E0,7.201187611E-1,5.741775632E-1,2.982740477E-2
2.383883498E0,6.492787004E-1,6.450176239E-1,7.829693705E-2
2.386274306E0,5.917543769E-1,3.504720032E-1,5.379585549E-2
2.387892845E0,4.053331316E-1,-2.210423797E-1,6.125270575E-2
2.390433460E0,1.283643693E-1,-5.560680628E-1,-1.225054078E-2
2.392000652E0,-1.241033077E-1,-5.773733258E-1,-1.560612470E-1
2.394367152E0,-2.972087860E-1,-3.739078343E-1,-2.556634545E-1
2.396179421E0,-3.675162494E-1,-8.788431436E-2,-2.348908186E-1
2.398908547E0,-2.790992856E-1,-4.793690052E-3,-6.391586363E-2
2.400232883E0,1.065264493E-1,1.443433315E-1,1.565938741E-1
2.402569191E0,2.242381722E-1,2.892192900E-1,2.609897852E-1
2.404365575E0,1.193096191E-1,2.114549875E-1,4.079962969E-1
2.406697998E0,5.326322280E-4,-1.475391239E-1,4.229099751E-1
2.408406883E0,9.906959534E-2,-5.475459099E-1,1.422128081E-1
2.410766729E0,3.467435837E-1,-6.482134461E-1,-3.238403797E-1
2.412565768E0,4.452805519E-1,-3.962783813E-1,-6.040049195E-1
2.414903498E0,3.004045784E-1,2.822950855E-2,-5.070658922E-1
2.416712537E0,9.001484513E-2,5.262406468E-1,-2.524676621E-1
2.419422817E0,-2.556634694E-2,8.777779341E-1,-7.723167539E-2
2.421092806E0,-9.587380290E-2,8.399610519E-1,-3.142530099E-2
2.423505163E0,-2.434129268E-1,4.506068528E-1,-4.367584363E-2
2.424870537E0,-5.480785370E-1,-2.391518652E-1,-4.953479767E-2
2.427574432E0,-8.458199501E-1,-6.050702333E-1,-2.162486911E-1
2.429022191E0,-9.960222840E-1,-6.476807594E-1,-4.447479248E-1
2.431678932E0,-9.986854196E-1,-6.024070382E-1,-5.171858668E-1
2.433176575E0,-9.187905788E-1,-2.641855776E-1,-4.277036786E-1
2.435783124E0,-7.030745149E-1,1.017327532E-1,-2.162486911E-1
2.437129114E0,-3.291667104E-1,3.829625845E-1,-7.456851192E-3
2.439887163E0,6.391586363E-2,5.400890708E-1,1.555286050E-1
2.441677114E0,3.685815036E-1,2.876213938E-2,4.239752591E-1
2.443925855E0,4.213120937E-1,-1.757686287E-1,4.186489284E-1
2.445206921E0,5.177185535E-1,-4.165183902E-1,1.683117896E-1
2.447994740E0,6.034722924E-1,-4.900216460E-1,-2.002697140E-1
2.449303229E0,5.518069863E-1,-4.127899706E-1,-4.106594622E-1
2.452098432E0,4.143878818E-1,-2.205097377E-1,-3.680488765E-1
2.453411921E0,3.222424984E-1,-4.793690052E-3,-1.661812514E-1
2.456052768E0,3.430151641E-1,3.611246645E-1,5.965480953E-2
2.457471075E0,3.227751255E-1,2.322276533E-1,1.906823367E-1
2.460305393E0,1.672465205E-1,-3.408846259E-2,2.274339646E-1
2.461974075E0,-4.953479767E-2,-1.272991002E-1,1.065264456E-2
2.463825575E0,-2.487392575E-1,-3.834952042E-2,-3.515372574E-1
2.465669998E0,-4.388889670E-1,1.970739290E-2,-5.677859783E-1
2.468119498E0,-5.720469952E-1,-1.182443574E-1,-4.671184719E-1
2.469750268E0,-5.576659441E-1,-3.030677438E-1,-1.683117896E-1
2.472183691E0,-3.888215125E-1,-3.259709179E-1,1.065264493E-1
2.473906421E0,-1.022653878E-1,-2.572613657E-1,3.046656251E-1
2.476279114E0,1.763012707E-1,-4.319647253E-1,5.001416802E-1
2.477965537E0,4.074636400E-1,-5.725796223E-1,5.107942820E-1
2.480776970E0,6.402239203E-1,-4.431500137E-1,2.183792144E-1
2.482224998E0,8.426241875E-1,-1.384843737E-1,-2.295644879E-1
2.484494075E0,9.044095278E-1,2.551308274E-1,-5.448827744E-1
2.486071344E0,7.600662112E-1,4.293015897E-1,-5.491438508E-1
2.488492498E0,5.235774517E-1,5.230448246E-1,-3.834952116E-1
2.490151383E0,2.391518652E-1,4.884237647E-1,-2.354234457E-1
2.492609998E0,-6.444849819E-2,2.865561247E-1,-1.581917703E-1
2.494299652E0,-3.765709996E-1,-1.081243455E-1,-1.368864775E-1
2.496923037E0,-6.503439546E-1,-5.976133347E-1,-1.384843737E-1
2.498523114E0,-8.080030680E-1,-7.723167539E-1,-2.418150306E-1
2.501197547E0,-8.522115946E-1,-7.110640407E-1,-2.881540358E-1
2.502833383E0,-8.942894936E-1,-2.450108230E-1,-1.001348570E-1
2.505265893E0,-8.857674003E-1,-1.097222418E-1,2.876213938E-2
2.506471460E0,-7.579356432E-1,-5.858954508E-3,2.535329461E-1
2.509335585E0,-3.877562582E-1,5.432848632E-2,2.743056118E-1
2.510592152E0,7.510114461E-2,-8.948221803E-2,1.837581247E-1
2.513440009E0,5.289037824E-1,-5.006743073E-1,1.672465205E-1
2.514716575E0,7.621967196E-1,-7.605988383E-1,1.608549356E-1
2.517544701E0,1.065797091E0,-6.647250056E-1,-3.568635881E-2
2.519098114E0,1.383245945E0,-2.444781959E-1,-3.344930410E-1
2.521648701E0,1.523328185E0,1.342233270E-1,-4.186489284E-1
2.523496268E0,1.395496488E0,3.659183383E-1,-2.743056118E-1
2.525687816E0,1.129712939E0,6.732471585E-1,-1.917476058E-1
2.526932575E0,7.861651778E-1,7.787083387E-1,-2.279665917E-1
2.529756970E0,3.845604658E-1,4.687163532E-1,-2.625876963E-1
2.531023844E0,-8.575379103E-2,-9.747169912E-2,-2.684466541E-1
2.533861085E0,-6.290386319E-1,-6.221144199E-1,-2.860234976E-1
2.535201844E0,-1.129180312E0,-7.408914566E-1,-3.739078343E-1
2.537965085E0,-1.443965912E0,-6.807039976E-1,-4.037352204E-1
2.539509037E0,-1.581385136E0,-4.319647253E-1,-3.797667921E-1
2.542069239E0,-1.609081984E0,-3.195793368E-3,-2.806971967E-1
2.543806460E0,-1.434378624E0,2.514024079E-1,2.556634694E-2
2.545582575E0,-1.325188994E0,2.620550692E-1,1.081243455E-1
2.547421383E0,-1.018925428E0,1.118527651E-1,1.901497096E-1
2.550012806E0,-6.173207760E-1,-3.430151641E-1,1.635181010E-1
2.550935960E0,-1.219727769E-1,-6.801713705E-1,-1.118527725E-2
2.552930344E0,1.246359423E-1,-7.360977530E-1,-1.304948926E-1
2.554610114E0,5.139901042E-1,-5.704491138E-1,-3.323625028E-1
2.556950537E0,6.567355394E-1,-4.101268202E-2,-3.547330499E-1
2.558660844E0,6.301039457E-1,5.097290277E-1,-2.082591951E-1
2.561492855E0,6.444849968E-1,6.807039976E-1,3.195793368E-3
2.562788537E0,8.021441102E-1,4.442152679E-1,8.522115648E-2
2.565218575E0,1.032241225E0,-3.190467060E-1,6.285060197E-2
2.566940229E0,8.724516034E-1,-6.748450398E-1,7.084008306E-2
2.569403998E0,4.990763962E-1,-5.464806557E-1,-7.456851192E-3
2.571244037E0,1.592570394E-1,-2.918824553E-1,-1.134506613E-1
2.573393537E0,-1.384843793E-2,-1.816275865E-1,-1.528654546E-1
2.575100806E0,-1.097222418E-1,-1.272991002E-1,-1.187769845E-1
2.577696037E0,-2.087918371E-1,-4.154531285E-2,-3.675162420E-2
2.579472075E0,-2.865561247E-1,-7.030745596E-2,8.628641814E-2
2.582033931E0,-3.398193717E-1,-1.161138266E-1,1.507349163E-1
2.583638806E0,-3.909520507E-1,-1.661812514E-1,1.640507281E-1
2.586106239E0,-4.830974340E-1,-3.691141307E-1,1.539307088E-1
2.587330498E0,-5.235774517E-1,-4.111920893E-1,-2.663161140E-3
2.590175239E0,-4.223773479E-1,-3.845604658E-1,-2.444781959E-1
2.591455498E0,-2.114549875E-1,-2.609897852E-1,-4.415521026E-1
2.594279277E0,-8.202536404E-2,9.054748341E-3,-4.415521026E-1
2.595523498E0,-1.731054783E-1,2.727077007E-1,-2.279665917E-1
2.598383585E0,-3.339604139E-1,4.894890189E-1,-3.089267015E-2
2.599853498E0,-3.765709996E-1,5.102616549E-1,-4.261057824E-2
2.602488239E0,-3.020024598E-1,2.221076339E-1,-1.768338978E-1
2.604331191E0,-2.796319127E-1,-5.187838078E-1,-2.119876295E-1
2.606533700E0,-3.403519988E-1,-6.956176758E-1,-1.736381054E-1
2.607759883E0,-4.793690145E-1,-6.791061163E-1,-1.182443574E-1
2.610603239E0,-5.496764779E-1,-4.506068528E-1,-9.960222989E-2
2.611975075E0,-4.953479767E-1,-2.364887148E-1,-8.042746782E-2
2.614707624E0,-3.526025414E-1,-1.352885813E-1,-3.355583176E-2
2.616097575E0,-1.182443574E-1,-1.555286050E-1,7.989482954E-3
2.618811777E0,2.498045117E-1,-4.207794741E-2,-4.101268202E-2
2.620381614E0,4.079962969E-1,-5.219795927E-2,-9.054748341E-3
2.622915431E0,5.379585624E-1,-2.588592768E-1,7.030745596E-2
2.624572960E0,7.392935157E-1,-2.940129936E-1,7.989482954E-3
2.626445075E0,9.576727748E-1,-2.753708661E-1,-9.800432622E-2
2.628279460E0,1.014664412E0,-1.603222936E-1,-9.960222989E-2
2.630695806E0,8.937568665E-1,-3.408846259E-2,3.462109342E-2
2.632377344E0,7.488809228E-1,1.970739290E-2,1.656486243E-1
2.634771691E0,6.641923785E-1,-4.527373984E-2,1.864212751E-1
2.636524729E0,5.528722405E-1,-1.102548689E-1,8.255799860E-2
2.638933460E0,3.190467060E-1,-1.794970632E-1,-2.503371425E-2
2.640605844E0,-1.118527725E-2,-3.067961633E-1,-6.018744037E-2
2.643380739E0,-3.456783295E-1,-2.769687474E-1,-1.288969964E-1
2.644787844E0,-5.251753926E-1,-1.518001854E-1,-1.842907518E-1
2.647113229E0,-6.625944972E-1,-1.741707325E-1,-1.310275346E-1
2.648871575E0,-7.824367285E-1,-5.060006306E-2,-2.450108156E-2
2.651452729E0,-8.069378138E-1,-1.757686287E-1,1.336906850E-1
2.652958267E0,-6.844323874E-1,-2.652508616E-1,1.885518134E-1
2.655334229E0,-4.356931746E-1,-2.253034264E-1,1.209075153E-1
2.656977883E0,-1.784317940E-1,-2.892192900E-1,1.097222418E-1
2.659391075E0,1.012001187E-2,-4.143878818E-1,1.928128600E-1
2.661222729E0,2.498045117E-1,-4.319647253E-1,2.071939409E-1
2.663923277E0,5.874933600E-1,-2.295644879E-1,4.793690145E-2
2.665634306E0,1.005077004E0,7.616640627E-2,-1.006674916E-1
2.668008239E0,1.008805394E0,1.853560209E-1,-2.663161140E-3
2.669310691E0,8.649947643E-1,3.121224940E-1,6.072007492E-2
2.672076469E0,7.030745149E-1,3.957457542E-1,-1.065264456E-3
2.673492767E0,5.299690962E-1,2.167813182E-1,-9.853696078E-2
2.676179508E0,2.886866629E-1,-1.411475390E-1,-1.432780623E-1
2.678214277E0,-8.362326026E-2,-3.744404614E-1,-1.576591432E-1
2.680283123E0,-5.470132828E-1,-3.094593287E-1,-2.071939409E-1
2.681645421E0,-9.475527406E-1,-1.054611802E-1,-2.545982003E-1
2.684387200E0,-1.210140467E0,5.326322280E-4,-2.530003190E-1
2.686177883E0,-1.315601587E0,2.183792181E-2,-2.109223604E-1
2.688426354E0,-1.376321673E0,-4.793690052E-3,-9.960222989E-2
2.689667344E0,-1.445031285E0,8.415589482E-2,3.408846259E-2
2.692494662E0,-1.470597625E0,8.149272949E-2,1.768338978E-1
2.693746306E0,-1.407747030E0,-1.587243974E-1,3.387540877E-1
2.696597700E0,-1.227184653E0,-5.736449361E-1,4.063983858E-1
2.697946152E0,-8.623315692E-1,-8.495483994E-1,2.540655732E-1
2.700584806E0,-3.296993375E-1,-6.838997602E-1,-1.182443574E-1
2.702417575E0,2.173139453E-1,-2.689792812E-1,-3.898867965E-1
2.704803854E0,6.407565475E-1,8.468852192E-2,-3.334277868E-1
2.706470960E0,1.055144429E0,7.893609405E-1,2.876213938E-2
2.708419383E0,1.137702465E0,9.203884602E-1,1.571265012E-1
2.710084152E0,1.196824670E0,8.325041533E-1,3.946804702E-1
2.712717998E0,1.037567616E0,3.994741738E-1,5.017395616E-1
2.714397652E0,6.833671331E-1,-2.790992856E-1,4.708468914E-1
2.716685267E0,3.153182864E-1,-8.175904751E-1,2.210423797E-1
2.718359844E0,-2.982740477E-2,-9.289106131E-1,-1.187769845E-1
2.720734383E0,-3.728425503E-1,-7.408914566E-1,-3.009372056E-1
2.722441306E0,-5.166532397E-1,-2.332929224E-1,-1.768338978E-1
2.725271931E0,-1.992044598E-1,8.309062570E-2,3.728425596E-3
2.726722383E0,2.838929892E-1,3.078614175E-1,2.114549875E-1
2.728822190E0,6.295713186E-1,3.414172530E-1,4.761732221E-1
2.730560998E0,7.701861858E-1,1.539307088E-1,6.945524216E-1
2.732989190E0,8.767126203E-1,-2.295644879E-1,6.540724039E-1
2.734692883E0,1.008805394E0,-2.551308274E-1,2.077265680E-1
2.737213075E0,9.693906307E-1,-1.017327532E-1,-2.508697808E-1
2.739010844E0,7.057377100E-1,-9.906959534E-2,-3.222424984E-1
2.741174575E0,3.446130455E-1,-1.395496428E-1,-1.475391239E-1
2.742900037E0,5.273059011E-2,-2.237055451E-2,8.522115648E-3
2.745705623E0,-1.139832959E-1,5.858954415E-2,7.350324839E-2
2.747492806E0,-2.087918371E-1,8.841694891E-2,5.699164793E-2
2.749772123E0,-4.468784332E-1,-3.302319720E-2,9.800432622E-2
2.751019690E0,-8.681905270E-1,-9.480853379E-2,9.054747969E-2
2.753840700E0,-1.286839485E0,1.432780623E-1,-1.565938741E-1
2.755043806E0,-1.530784965E0,2.471413612E-1,-4.095941782E-1
2.757943469E0,-1.682052612E0,8.415589482E-2,-4.564658105E-1
2.759147921E0,-1.777393699E0,-5.965480953E-2,-2.695119083E-1
2.762033037E0,-1.734250546E0,-2.652508616E-1,7.084008306E-2
2.763266114E0,-1.472195506E0,-3.771036267E-1,3.488741219E-1
2.766148546E0,-9.092032313E-1,-4.676510990E-1,4.825648069E-1
2.767855190E0,2.929477394E-1,-8.447546959E-1,5.619270205E-1
2.770182806E0,6.870955825E-1,-9.017463326E-1,5.571333170E-1
2.771337460E0,1.327852130E0,-6.567355394E-1,4.239752591E-1
2.774255392E0,1.686846256E0,9.480853379E-2,1.704423130E-1
2.775436190E0,1.772600055E0,7.669904232E-1,-1.012001187E-2
2.778341844E0,1.698031545E0,9.715211987E-1,-8.362326026E-2
2.779532190E0,1.594168305E0,8.751147389E-1,-1.805623323E-1
2.782325421E0,1.261273146E0,3.387540877E-1,-2.519350350E-1
2.783765037E0,8.319715261E-1,-2.087918371E-1,-7.403588295E-2
2.786566315E0,1.645833552E-1,-6.593986750E-1,1.448759735E-1
2.788191729E0,-4.660531878E-1,-7.717841268E-1,2.620550692E-1
2.790080767E0,-8.287757635E-1,-6.764429212E-1,3.158509135E-1
2.791839037E0,-1.074319243E0,-4.330300093E-1,2.471413612E-1
2.794294306E0,-1.251153111E0,5.326322280E-3,1.635181010E-1
2.795937613E0,-1.382180691E0,1.059938148E-1,1.826928556E-1
2.798425075E0,-1.374723792E0,2.039981484E-1,1.443433315E-1
2.800128998E0,-1.190965652E0,2.284992188E-1,5.912217870E-2
2.802443344E0,-8.825715780E-1,-5.273059011E-2,9.693906456E-2
2.804246537E0,-4.601942301E-1,-4.639226794E-1,1.874865443E-1
2.807051546E0,4.314320907E-2,-6.886934638E-1,1.667138934E-1
2.808332344E0,5.832322836E-1,-4.708468914E-1,2.556634694E-2
2.810720690E0,1.019458055E0,-1.400822699E-1,2.130528912E-3
2.812507421E0,1.197357297E0,2.354234457E-1,1.475391239E-1
2.814891190E0,1.139300346E0,6.061354876E-1,3.190467060E-1
2.816647844E0,9.566074610E-1,7.627293468E-1,3.648530841E-1
2.819169613E0,7.201187611E-1,5.661880374E-1,2.785666585E-1
2.820874921E0,4.239752591E-1,6.391586736E-3,1.661812514E-1
2.823052306E0,6.657902896E-2,-6.460828781E-1,4.846953228E-2
2.824751998E0,-2.364887148E-1,-8.341020942E-1,-1.533980817E-1
2.827594584E0,-4.165183902E-1,-5.555354357E-1,-2.226402760E-1
2.829336306E0,-4.649879336E-1,-1.145159304E-1,-2.503371425E-2
2.831667853E0,-4.490089715E-1,3.589941263E-1,2.354234457E-1
2.832885113E0,-3.771036267E-1,5.459480286E-1,4.740426838E-1
2.835737238E0,-3.142530024E-1,4.708468914E-1,6.205165386E-1
2.837008037E0,-4.207794666E-1,8.948221803E-2,6.950850487E-1
2.839840892E0,-5.443501472E-1,-3.850930929E-1,6.072007418E-1
2.841081037E0,-5.145227313E-1,-8.186557293E-1,2.998719513E-1
2.843944161E0,-2.572613657E-1,-9.214537740E-1,-1.129180342E-1
2.845181229E0,7.297061384E-2,-6.364955306E-1,-3.653857112E-1
2.848047353E0,3.158509135E-1,-2.503371537E-1,-2.199771106E-1
2.849952613E0,4.990763962E-1,3.243730366E-1,1.017327532E-1
2.852093661E0,6.327670813E-1,9.661948681E-1,3.094593287E-1
2.853621152E0,6.327670813E-1,1.299090028E0,3.930825889E-1
2.856161123E0,4.127899706E-1,1.017327547E0,3.952131271E-1
2.857528921E0,-1.225054078E-2,4.490089715E-1,2.705771625E-1
2.860263661E0,-4.948153496E-1,-2.348908186E-1,2.716424316E-2
2.861527306E0,-8.282431364E-1,-7.419567108E-1,-2.135855258E-1
2.864233613E0,-9.528790712E-1,-1.171258211E0,-2.221076339E-1
2.865672613E0,-9.358348250E-1,-1.107342362E0,-5.858954508E-3
2.868469930E0,-7.707188129E-1,-6.013417840E-1,3.147856593E-1
2.870215690E0,-1.150485575E-1,2.908172011E-1,6.572681665E-1
2.871974960E0,1.464738697E-1,4.985437691E-1,7.078682184E-1
2.873798883E0,5.608617067E-1,5.784385800E-1,7.717841268E-1
2.876252421E0,8.058725595E-1,3.201119602E-1,6.972155571E-1
2.877899460E0,8.974853158E-1,1.853560209E-1,3.408846259E-1
2.880261498E0,8.255799413E-1,1.470064968E-1,-1.059938148E-1
2.881986806E0,5.363606811E-1,6.817692518E-2,-3.083940744E-1
2.884381306E0,-5.219795927E-2,-6.924218964E-3,-1.645833552E-1
2.886151960E0,-3.291667104E-1,-9.321063757E-2,3.994741663E-2
2.888919546E0,-4.383563101E-1,8.415589482E-2,1.113201380E-1
2.890300075E0,-4.889563918E-1,1.374191195E-1,2.024002522E-1
2.892519306E0,-6.988134980E-1,3.355583176E-2,3.781688809E-1
2.894198036E0,-1.032773852E0,1.699096859E-1,3.776362538E-1
2.896569998E0,-1.273523688E0,2.775014043E-1,1.842907518E-1
2.898240460E0,-1.381115317E0,1.203748807E-1,-7.084008306E-2
2.900683229E0,-1.398692250E0,5.326322280E-4,-2.386192381E-1
2.902471421E0,-1.296959519E0,-3.025351167E-1,-1.629854590E-1
2.904805498E0,-1.025849700E0,-2.998719513E-1,-4.261057824E-3
2.906565575E0,-5.896238685E-1,-1.693770438E-1,2.412824035E-1
2.909305430E0,-4.474110901E-2,-3.158509135E-1,6.061354876E-1
2.910938652E0,6.306365728E-1,-5.017395616E-1,8.681905270E-1
2.913384545E0,1.343831062E0,-6.317018270E-1,8.815063238E-1
2.914581190E0,1.913214922E0,-2.982740402E-1,5.954828262E-1
2.917453276E0,2.109756231E0,1.864212751E-1,3.435477912E-1
2.918755267E0,1.869539142E0,4.809668958E-1,2.806971967E-1
2.921556776E0,1.462608099E0,7.344998717E-1,1.629854590E-1
2.922914460E0,1.078580260E0,7.424893379E-1,-5.539375171E-2
2.925660507E0,8.032094240E-1,4.287689328E-1,-2.274339646E-1
2.926966036E0,4.873584807E-1,-1.102548689E-1,-1.912149638E-1
2.929763507E0,3.142530099E-2,-3.946804702E-1,-4.953479767E-2
2.931602575E0,-7.547398806E-1,-1.709749401E-1,1.688444167E-1
2.933802699E0,-9.912285805E-1,-5.113269389E-2,2.354234457E-1
2.935098229E0,-1.330515265E0,1.810949594E-1,3.041329980E-1
2.937871892E0,-1.450357556E0,6.338323653E-2,3.350256681E-1
2.939237306E0,-1.419464946E0,-1.416801661E-1,3.238403797E-1
2.941975776E0,-1.287904739E0,-2.604571581E-1,3.094593287E-1
2.943233229E0,-1.046089649E0,-5.470132828E-1,4.580637217E-1
2.945998306E0,-7.366303802E-1,-6.018744111E-1,5.134574771E-1
2.947428844E0,-2.364887148E-1,-4.346278906E-1,3.142530024E-1
2.950182468E0,3.818973005E-1,1.544633508E-1,-6.391586363E-2
2.951797229E0,7.568703890E-1,6.040049195E-1,-1.773665249E-1
2.953732921E0,7.957525253E-1,7.462177277E-1,3.142530099E-2
2.955521383E0,7.041398287E-1,9.422264099E-1,1.928128600E-1
2.958033729E0,6.540724039E-1,7.877630591E-1,2.114549875E-1
2.959595652E0,6.066681147E-1,2.721750736E-1,1.475391239E-1
2.962153190E0,4.506068528E-1,-4.106594622E-1,1.507349163E-1
2.963734075E0,1.491370201E-1,-8.815063238E-1,1.651159972E-1
2.966092344E0,-1.544633508E-1,-5.954828262E-1,5.912217870E-2
2.967843729E0,-4.053331316E-1,-1.938781291E-1,5.592638254E-2
2.970654161E0,-5.331648588E-1,1.741707325E-1,1.715075821E-1
2.972024306E0,-4.900216460E-1,2.849582434E-1,3.430151641E-1
2.974171152E0,-3.478088379E-1,2.908172011E-1,4.617921412E-1
2.975880421E0,-2.269013226E-1,2.450108230E-1,4.990763962E-1
2.978339536E0,-2.327602804E-1,-4.633900523E-2,5.736449361E-1
2.980016690E0,-2.588592768E-1,-4.591289759E-1,5.869607329E-1
2.982424190E0,-1.091896072E-1,-7.068029642E-1,3.760383427E-1
2.984194113E0,2.386192381E-1,-6.034722924E-1,7.989482954E-3
2.986576267E0,5.507417321E-1,-1.635181010E-1,-2.034655064E-1
2.988253575E0,6.636597514E-1,1.821602285E-1,-5.858954508E-3
2.991068661E0,6.689860821E-1,4.857605994E-1,3.456783295E-1
2.992672575E0,7.701861858E-1,7.978830934E-1,4.964132309E-1
2.995135776E0,7.893609405E-1,7.733820081E-1,4.415521026E-1
2.996395036E0,6.503439546E-1,4.596616030E-1,3.318298757E-1
2.999204391E0,2.982740402E-1,-1.597896591E-2,2.370213419E-1
3.000560152E0,-3.616572917E-1,-2.881540358E-1,-5.645901710E-2
3.003308084E0,-6.556702852E-1,-3.073287904E-1,-1.581917703E-1
3.004656998E0,-7.584682703E-1,-3.595267534E-1,-9.534116834E-2
3.007411660E0,-7.121292949E-1,-2.838929892E-1,6.072007492E-2
3.008694883E0,-5.757754445E-1,-3.036003746E-2,2.332929224E-1
3.011515045E0,-4.340952635E-1,2.759034932E-1,3.611246645E-1
3.013248729E0,-3.589941263E-1,3.701793849E-1,4.836300611E-1
3.015552314E0,-3.542004228E-1,2.098570913E-1,5.097290277E-1
3.016800959E0,-3.185140789E-1,9.587380290E-2,2.913498282E-1
3.019620314E0,-2.375539690E-1,2.290318534E-2,-4.633900523E-2
3.021194229E0,-2.492718846E-1,1.810949668E-2,-2.492718846E-1
3.023724045E0,-3.776362538E-1,-3.462109342E-2,-1.651159972E-1
3.025031036E0,-4.761732221E-1,-5.060006306E-2,3.408846259E-2
3.027776383E0,-3.685815036E-1,6.391586363E-2,1.177117229E-1
3.029342921E0,-1.166464612E-1,1.368864775E-1,1.230380461E-1
3.031930891E0,1.022653878E-1,1.059938148E-1,1.778991669E-1
3.033751844E0,1.842907518E-1,3.462109342E-2,2.993393242E-1
3.035581959E0,1.938781291E-1,5.219795927E-2,2.769687474E-1
3.037300229E0,2.663161159E-1,1.800296903E-1,1.043959185E-1
3.040012267E0,3.685815036E-1,1.512675583E-1,-3.994741663E-2
3.041349575E0,3.414172530E-1,6.231797114E-2,-3.142530099E-2
3.043849729E0,2.348908186E-1,-5.539375171E-2,9.161274135E-2
3.045494267E0,1.070590764E-1,-3.408846259E-2,1.645833552E-1
3.048017036E0,-5.965480953E-2,2.311623842E-1,1.012001261E-1
3.049607921E0,-2.514024079E-1,2.721750736E-1,8.468852192E-2
3.052404276E0,-5.395564437E-1,1.438106969E-2,4.420847446E-2
3.053702844E0,-6.253102422E-1,6.125270575E-2,-1.374191195E-1
3.056123113E0,-7.249124646E-1,1.241033077E-1,-2.359560728E-1
3.057801383E0,-9.321063757E-1,1.880191714E-1,-1.214401498E-1
3.060254306E0,-1.125984550E0,8.149272949E-2,1.075917110E-1
3.061921806E0,-1.075384498E0,-8.255799860E-2,2.290318608E-1
3.064300998E0,-8.724516034E-1,-1.731054783E-1,1.624528319E-1
3.066229152E0,-6.295713186E-1,-4.900216311E-2,1.384843793E-2
3.068497959E0,-4.277036786E-1,-1.102548689E-1,1.810949668E-2
3.070265652E0,-2.588592768E-1,-8.362326026E-2,7.669904083E-2
3.072943276E0,2.343581803E-2,6.870955974E-2,6.338323653E-2
3.074520767E0,4.101268053E-1,1.922802329E-1,3.195793182E-2
3.077014660E0,7.121292949E-1,2.977414131E-1,1.038632840E-1
3.078343575E0,8.303736448E-1,2.039981484E-1,3.451456726E-1
3.081082199E0,8.681905270E-1,-1.118527725E-2,5.677859783E-1
3.082349075E0,9.129316211E-1,-9.534116834E-2,5.534048676E-1
3.085184814E0,9.555422068E-1,-1.502022892E-1,3.845604658E-1
3.086517113E0,9.390306473E-1,-2.945456207E-1,2.625876963E-1
3.089287968E0,8.239820600E-1,-2.860234976E-1,1.768338978E-1
3.090632229E0,6.562029123E-1,-1.597896684E-3,9.480853379E-2
3.093391583E0,4.042678475E-1,3.813646734E-1,5.645901710E-2
3.095285459E0,-1.592570394E-1,7.898935676E-1,2.876213938E-2
3.097437237E0,-3.472762108E-1,8.159925938E-1,2.609897964E-2
3.098681190E0,-7.574030161E-1,6.093312502E-1,3.834952042E-2
3.101505622E0,-1.136104584E0,2.711097896E-1,1.278317347E-2
3.102811421E0,-1.494033456E0,-4.793690052E-3,-5.219795927E-2
3.105609391E0,-1.785383224E0,-3.776362538E-1,-6.285060197E-2
3.106876344E0,-1.781122208E0,-4.303668439E-1,-1.384843793E-2
3.109699036E0,-1.600027204E0,-1.832254827E-1,6.391586363E-2
3.111011229E0,-1.269795179E0,-2.183792181E-2,2.103897333E-1
3.113816160E0,-8.783105612E-1,2.540655732E-1,3.020024598E-1
3.115426075E0,-4.575310946E-1,4.410194755E-1,3.510046303E-1
3.117625036E0,-1.651159860E-2,2.668487430E-1,4.016047120E-1
3.119214113E0,4.479437172E-1,7.190535218E-2,3.744404614E-1
3.121650459E0,8.111988902E-1,-1.091896072E-1,3.584614992E-1
3.123283921E0,1.030643344E0,-2.396845073E-1,3.925499618E-1
3.126070314E0,1.150485635E0,-2.801645398E-1,4.186489284E-1
3.127345498E0,1.269262552E0,-2.359560728E-1,3.605920076E-1
3.129905536E0,1.372060657E0,-2.024002373E-2,1.853560209E-1
3.131480921E0,1.312405825E0,3.984089196E-1,-1.757686399E-2
3.134276660E0,1.040230751E0,7.600662112E-1,-1.038632840E-1
3.135632113E0,6.812366247E-1,9.257147908E-1,-1.049285457E-1
3.138174921E0,2.934803665E-1,8.559399843E-1,-5.965480953E-2
3.139758998E0,-9.374327213E-2,4.628573954E-1,5.113269389E-2
3.142085613E0,-4.580637217E-1,-1.347559541E-1,2.135855258E-1
3.143768652E0,-8.138620257E-1,-5.693838596E-1,3.099919558E-1
3.146129036E0,-1.054611802E0,-7.142598033E-1,2.892192900E-1
3.147907152E0,-1.116397142E0,-6.460828781E-1,1.624528319E-1
3.150362613E0,-1.037034988E0,-3.073287904E-1,3.089267015E-2
3.152261421E0,-8.985505700E-1,1.533980817E-1,-1.810949668E-2
3.154817506E0,-6.045376062E-1,7.803062201E-1,2.183792181E-2
3.156541229E0,-3.446130455E-1,7.845672965E-1,1.246359423E-1
3.158895045E0,-7.137271762E-2,5.470132828E-1,1.784317940E-1
3.160106882E0,1.347559541E-1,2.386192381E-1,1.741707325E-1
3.162962506E0,2.545982003E-1,-1.960086524E-1,1.938781291E-1
3.164278690E0,2.865561247E-1,-4.708468914E-1,1.880191714E-1
3.167065083E0,2.876214087E-1,-3.776362538E-1,8.575379103E-2
3.168421267E0,2.668487430E-1,-6.604639441E-2,-3.302319720E-2
3.171168544E0,1.986718178E-1,4.170510471E-1,-1.038632840E-1
3.172680306E0,7.829693705E-2,7.179882526E-1,-1.438106969E-2
3.175271775E0,-6.498113275E-2,6.849650741E-1,1.880191714E-1
3.177117536E0,-1.752360016E-1,4.623247683E-1,3.291667104E-1
3.179309698E0,-1.581917703E-1,1.970739290E-2,3.510046303E-1
3.180976267E0,-4.367584363E-2,-5.049353242E-1,3.174487948E-1
3.183377583E0,5.858954508E-3,-7.941546440E-1,2.812298238E-1
3.184629806E0,-2.716424316E-2,-6.641923785E-1,2.338255495E-1
3.187480814E0,-2.237055451E-2,-2.322276533E-1,1.161138266E-1
3.188752575E0,1.246359423E-1,3.675162494E-1,-6.498113275E-2
3.191446306E0,3.334277868E-1,8.069378138E-1,-1.464738697E-1
3.192866382E0,4.447479248E-1,8.926916122E-1,-3.941478580E-2
3.195686967E0,3.765709996E-1,8.724516034E-1,1.198422536E-1
3.197440421E0,9.800432622E-2,5.592638254E-1,1.794970632E-1
3.199255690E0,-3.195793368E-3,3.094593287E-1,1.704423130E-1
3.201101921E0,-2.210423797E-1,-3.201119602E-1,1.475391239E-1
3.203478075E0,-4.660531878E-1,-6.791061163E-1,6.018744037E-2
3.205203575E0,-7.073355913E-1,-5.986786485E-1,-8.096009493E-2
3.207545036E0,-8.729842305E-1,-2.082591951E-1,-1.965412945E-1
3.209202306E0,-9.608685374E-1,2.924150825E-1,-2.002697140E-1
3.211594382E0,-9.992180467E-1,8.186557293E-1,-1.651159860E-2
3.213381036E0,-9.843043685E-1,8.255799413E-1,1.342233270E-1
3.216150044E0,-9.262474179E-1,5.012069345E-1,2.423476577E-1
3.217531536E0,-7.819041014E-1,-6.924218684E-2,2.428802997E-1
3.219912921E0,-5.917543769E-1,-5.123922229E-1,1.262338310E-1
3.221434536E0,-4.186489284E-1,-6.604639888E-1,-2.556634694E-2
3.223952498E0,-2.460760921E-1,-5.496764779E-1,-1.166464612E-1
3.225591767E0,4.687163606E-2,-1.949433982E-1,-1.805623323E-1
3.227861344E0,4.367584288E-1,3.025351167E-1,-2.039981484E-1
3.229585652E0,7.707188129E-1,8.069378138E-1,-1.480717659E-1
3.232092921E0,9.475527406E-1,1.067394972E0,2.450108156E-2
3.233804575E0,9.491506219E-1,9.033442736E-1,2.402171344E-1
3.236505352E0,8.335694075E-1,5.459480286E-1,2.897519469E-1
3.238185729E0,6.290386319E-1,1.315601617E-1,1.741707325E-1
3.240571737E0,3.153182864E-1,-3.440804183E-1,6.764429063E-2
3.242127267E0,-5.752427876E-2,-7.009440064E-1,3.249056637E-2
3.244639352E0,-3.462109566E-1,-7.787083387E-1,2.183792181E-2
3.246041305E0,-4.953479767E-1,-4.463458061E-1,-4.207794741E-2
3.248742083E0,-5.683186054E-1,1.672465205E-1,-9.214537591E-2
3.250043267E0,-6.199839115E-1,6.199839115E-1,-1.331580617E-2
3.252844583E0,-6.290386319E-1,7.046724558E-1,1.518001854E-1
3.254202767E0,-5.374259353E-1,5.539374948E-1,2.018676102E-1
3.256946929E0,-3.552657068E-1,3.339604139E-1,1.193096191E-1
3.258697729E0,-2.151834220E-1,-1.459412277E-1,5.592638254E-2
3.260983929E0,-2.194444835E-1,-2.455434501E-1,6.498113275E-2
3.262440498E0,-2.247707993E-1,-3.579288721E-1,9.054747969E-2
3.265051429E0,-1.246359423E-1,-2.157160491E-1,-5.326322280E-4
3.266542536E0,2.237055451E-2,1.805623323E-1,-1.416801661E-1
3.269153621E0,5.912217870E-2,6.008091569E-1,-1.986718178E-1
3.270458729E0,-2.982740477E-2,8.042746782E-1,-1.171790883E-1
3.273149729E0,-2.226402760E-1,7.307714224E-1,-4.314320907E-2
3.274543575E0,-3.723099232E-1,5.134574771E-1,-1.038632840E-1
3.277358736E0,-5.305017233E-1,5.273059011E-2,-8.788431436E-2
3.279336652E0,-7.435545921E-1,-4.085289240E-1,1.065264456E-2
3.281080882E0,-9.560748339E-1,-5.400890708E-1,8.042746782E-2
3.282982498E0,-1.012001276E0,-4.255731404E-1,5.486112088E-2
3.285180421E0,-8.847021461E-1,-1.145159304E-1,-4.048004746E-2
3.286816959E0,-6.572681665E-1,2.370213419E-1,-9.480853379E-2
3.289272998E0,-4.245078862E-1,5.305017233E-1,-5.432848632E-2
3.290905844E0,-2.300971150E-1,6.535397172E-1,9.214537591E-2
3.293730121E0,-3.568635881E-2,5.464806557E-1,2.535329461E-1
3.295023921E0,2.657834888E-1,1.880191714E-1,3.536677957E-1
3.297832659E0,5.736449361E-1,-2.556634545E-1,3.872236311E-1
3.299247498E0,7.014766335E-1,-4.000068009E-1,3.499393761E-1
3.301592421E0,6.705839634E-1,-3.616572917E-1,3.243730366E-1
3.303413075E0,6.423544884E-1,-2.396845073E-1,2.519350350E-1
3.305743921E0,6.977482438E-1,1.587243974E-1,9.108011425E-2
3.307335498E0,7.201187611E-1,4.431500137E-1,4.420847446E-2
3.309752459E0,6.322344542E-1,5.427522659E-1,1.768338978E-1
3.311442690E0,5.193164349E-1,3.904194236E-1,3.467435837E-1
3.314097267E0,4.772384763E-1,2.082591951E-1,3.707120419E-1
3.315584459E0,4.399542212E-1,2.290318534E-2,2.673813701E-1
3.318369082E0,3.036003709E-1,-7.350324839E-2,1.608549356E-1
3.320009536E0,-1.225054078E-2,-2.391518652E-1,1.278317273E-1
3.322440582E0,-8.415589482E-2,-2.061286718E-1,6.391586363E-2
3.323713921E0,-5.965480953E-2,-1.065264456E-3,-7.297061384E-2
3.326507313E0,-9.640643001E-2,5.038700700E-1,-2.338255495E-1
3.327803498E0,-2.833603323E-1,9.145295620E-1,-2.263686955E-1
3.330609275E0,-5.544701219E-1,9.342369437E-1,-4.953479767E-2
3.331957305E0,-8.122641444E-1,7.765777707E-1,6.498113275E-2
3.334711967E0,-8.836368918E-1,2.940129936E-1,1.118527651E-1
3.336024882E0,-8.346347213E-1,-4.245078862E-1,1.486043930E-1
3.338813775E0,-7.909588814E-1,-6.711165905E-1,1.315601617E-1
3.340677767E0,-7.366303802E-1,-7.259777188E-1,2.093244642E-1
3.342858505E0,-5.736449361E-1,-7.089334726E-1,3.499393761E-1
3.344082152E0,-2.045307755E-1,-3.621899188E-1,3.025351167E-1
3.346926621E0,3.233077526E-1,2.364887148E-1,8.202536404E-2
3.348199228E0,8.064051867E-1,6.647250056E-1,-5.006742850E-2
3.351029890E0,1.124386668E0,7.078682184E-1,3.888215125E-2
3.352369536E0,1.231978297E0,7.222493291E-1,1.709749401E-1
3.355101190E0,1.191498280E0,7.052050829E-1,2.018676102E-1
3.356455613E0,1.055677056E0,4.277036786E-1,2.002697140E-1
3.359235659E0,8.309062719E-1,-6.977482140E-2,1.912149638E-1
3.360832652E0,4.548679292E-1,-4.724447727E-1,4.314320907E-2
3.362693652E0,3.265035450E-1,-4.484763443E-1,-2.769687586E-2
3.364502305E0,3.675162420E-2,-1.331580579E-1,-1.635181010E-1
3.367147267E0,-3.137203753E-1,3.094593287E-1,-1.997370869E-1
3.368688921E0,-6.636597514E-1,7.520766854E-1,-1.821602285E-1
3.371377998E0,-9.246495366E-1,9.427590370E-1,-1.049285457E-1
3.372771767E0,-1.094026566E0,6.508765817E-1,7.456851192E-3
3.375137305E0,-1.180312991E0,2.439455539E-1,6.072007492E-2
3.377046882E0,-1.337439537E0,-2.476739883E-1,3.462109342E-2
3.379689928E0,-1.416801691E0,-2.679139972E-1,-1.171790902E-2
3.381170805E0,-1.361407995E0,-3.312972486E-1,3.994741663E-2
3.383442998E0,-1.109472990E0,-3.179814517E-1,9.374327213E-2
3.385532728E0,-6.934871674E-1,-3.781688958E-2,4.314320907E-2
3.387545690E0,-2.077265680E-1,3.099919558E-1,-1.118527725E-2
3.389408767E0,2.125202566E-1,5.645901561E-1,6.711166352E-2
3.391732421E0,4.926848114E-1,5.502091050E-1,2.790992856E-1
3.393308421E0,6.785734296E-1,4.905542731E-1,4.490089715E-1
3.396128659E0,8.074704409E-1,2.492718846E-1,5.054680109E-1
3.397499882E0,8.671252728E-1,-6.498113275E-2,4.772384763E-1
3.400231390E0,8.857674003E-1,-3.850930929E-1,4.058657587E-1
3.402336921E0,9.305084944E-1,-6.018744111E-1,3.472762108E-1
3.404309736E0,9.741843343E-1,-5.065332651E-1,2.684466541E-1
3.405530036E0,9.198558331E-1,9.906959534E-2,1.539307088E-1
3.408377582E0,8.074704409E-1,7.014766335E-1,1.427454352E-1
3.409893459E0,6.993461251E-1,8.953547478E-1,2.657834888E-1
3.412480005E0,6.604639888E-1,7.408914566E-1,3.637878001E-1
3.413748728E0,6.242449880E-1,3.994741738E-1,3.936152160E-1
3.416583005E0,4.676510990E-1,2.822950855E-2,3.861583769E-1
3.418082113E0,1.970739216E-1,-2.066612989E-1,3.563309610E-1
3.420686390E0,-3.781688958E-2,-3.930825889E-1,3.227751255E-1
3.422445767E0,-1.411475390E-1,-2.892192900E-1,1.741707325E-1
3.424724967E0,-1.470064968E-1,-1.043959185E-1,1.070590764E-1
3.426048959E0,-2.279665917E-1,4.245078862E-1,1.757686399E-2
3.428793274E0,-3.818973005E-1,8.458199501E-1,5.060006306E-2
3.430093882E0,-5.257080197E-1,8.969526887E-1,1.470064968E-1
3.432896313E0,-5.395564437E-1,5.581985712E-1,1.486043930E-1
3.434184536E0,-4.932174385E-1,5.432848632E-2,1.262338310E-1
3.436959882E0,-4.095941782E-1,-5.091964006E-1,1.427454352E-1
3.438313921E0,-3.488741219E-1,-6.918892860E-1,1.262338310E-1
3.441103197E0,-3.259709179E-1,-3.435477912E-1,4.900216311E-2
3.442696151E0,-2.780340314E-1,1.001348570E-1,-1.491370238E-2
3.444653882E0,-1.235706806E-1,4.426173866E-1,-7.723167539E-2
3.446476805E0,8.948221803E-2,7.946872711E-1,-1.810949594E-1
3.448974651E0,1.928128600E-1,9.875001311E-1,-1.890844405E-1
3.450598036E0,1.539307088E-1,8.644620776E-1,3.728425596E-3
3.452946305E0,4.048004746E-2,4.133225977E-1,2.727077007E-1
3.454684228E0,7.456851006E-2,-1.933455020E-1,4.245078862E-1
3.456990075E0,2.625876963E-1,-8.751147389E-1,4.335626364E-1
3.458782498E0,4.367584288E-1,-9.789780378E-1,2.817624509E-1
3.461578659E0,4.836300611E-1,-6.844323874E-1,1.731054783E-1
3.462932267E0,4.772384763E-1,-2.162486911E-1,1.715075821E-1
3.465142882E0,5.129248500E-1,4.063983858E-1,1.097222418E-1
3.466821805E0,5.566006899E-1,1.004544377E0,-3.675162420E-2
3.469385998E0,5.635249019E-1,1.328917384E0,-1.901497096E-1
3.471580190E0,5.091964006E-1,1.022121191E0,-1.587243974E-1
3.473372382E0,3.893541694E-1,3.749730885E-1,-3.355583176E-2
3.475085190E0,2.482066154E-1,-7.936219871E-2,6.231797114E-2
3.477480882E0,9.001484513E-2,-6.018744111E-1,2.487392575E-1
3.479202536E0,-1.262338310E-1,-6.636597514E-1,4.074636400E-1
3.481990005E0,-3.169161677E-1,-4.830974340E-1,5.113269091E-1
3.483562536E0,-3.350256681E-1,-3.467435837E-1,5.006743073E-1
3.486055928E0,-2.322276533E-1,5.858954508E-3,2.455434501E-1
3.487328575E0,-1.848233789E-1,6.721818447E-1,-1.139832959E-1
3.490123389E0,-2.380866110E-1,1.007740140E0,-2.599245310E-1
3.491375267E0,-3.025351167E-1,7.813714743E-1,-1.496696621E-1
3.494225428E0,-2.860234976E-1,4.724447727E-1,-3.834952042E-2
3.495728536E0,-1.597896665E-1,-6.072007492E-2,6.604639441E-2
3.498327351E0,-2.450108156E-2,-4.559331834E-1,1.139832959E-1
3.499652421E0,2.024002373E-2,-4.799016416E-1,1.283643693E-1
3.502428812E0,-3.089267015E-2,-3.728425503E-1,1.768338978E-1
3.504516498E0,-9.800432622E-2,-3.781688958E-2,1.299622655E-1
3.506466428E0,-5.752427876E-2,3.717772961E-1,-5.379585549E-2
3.507690921E0,6.657902896E-2,7.792409658E-1,-3.078614175E-1
3.510534005E0,1.661812514E-1,9.629990458E-1,-3.994741738E-1
3.511807728E0,1.677791476E-1,7.243798375E-1,-1.922802329E-1
3.514636274E0,1.549959779E-1,2.849582434E-1,1.368864775E-1
3.515909113E0,2.311623842E-1,-2.189118415E-1,3.845604658E-1
3.518738697E0,4.037352204E-1,-5.986786485E-1,4.671184719E-1
3.520089805E0,5.954828262E-1,-7.334345579E-1,4.623247683E-1
3.522840466E0,7.355651259E-1,-7.776430249E-1,4.921521842E-1
3.524606344E0,8.309062719E-1,-4.282363057E-1,4.479437172E-1
3.526339305E0,8.559399843E-1,-1.763012707E-1,3.392867148E-1
3.528166536E0,9.395632744E-1,5.555354357E-1,-4.793690052E-3
3.530679536E0,9.598032832E-1,1.026914954E0,-2.455434501E-1
3.532314382E0,8.548747301E-1,8.847021461E-1,-1.944107562E-1
3.534761767E0,6.460828781E-1,7.488809228E-1,-6.604639441E-2
3.536394651E0,3.462109566E-1,3.733751774E-1,1.219727769E-1
3.538888959E0,6.764429063E-2,-2.066612989E-1,2.982740402E-1
3.540676690E0,-2.034655064E-1,-7.201187611E-1,3.025351167E-1
3.543308197E0,-3.424825370E-1,-7.456851006E-1,1.928128600E-1
3.544635228E0,-5.544701219E-1,-4.207794666E-1,4.687163606E-2
3.546969036E0,-7.946872711E-1,1.912149638E-1,-1.507349163E-1
3.548710498E0,-9.315737486E-1,7.728493810E-1,-3.771036267E-1
3.551228844E0,-9.337043166E-1,1.132908702E0,-5.821670294E-1
3.552937228E0,-8.484831452E-1,1.022653818E0,-5.842975378E-1
3.555171074E0,-7.728493810E-1,6.785734296E-1,-4.138552547E-1
3.557041998E0,-6.695187092E-1,2.258360684E-1,-1.608549356E-1
3.559453344E0,-4.250405133E-1,-3.648530841E-1,1.038632840E-1
3.561025767E0,-5.060006306E-2,-8.010788560E-1,2.609897852E-1
3.563842735E0,3.515372574E-1,-7.579356432E-1,2.775014043E-1
3.565529267E0,6.492787004E-1,-5.550028086E-1,3.323625028E-1
3.567933274E0,7.952198982E-1,-1.912149638E-1,3.728425503E-1
3.569183421E0,8.607336879E-1,4.772384763E-1,2.173139453E-1
3.572000197E0,8.905611038E-1,1.046089649E0,-6.444849819E-2
3.573416190E0,8.863000274E-1,1.038632870E0,-2.242381722E-1
3.576101389E0,7.925567627E-1,5.928196907E-1,-1.885518134E-1
3.577327421E0,5.986786485E-1,5.432848632E-2,-3.781688958E-2
3.580203043E0,4.005394280E-1,-3.978762627E-1,1.246359423E-1
3.581496921E0,2.215750068E-1,-6.897587180E-1,2.668487430E-1
3.584305581E0,2.716424316E-2,-5.848301649E-1,2.977414131E-1
3.586129613E0,-2.684466541E-1,-5.965480953E-2,1.928128600E-1
3.588351966E0,-3.494067490E-1,7.882957160E-2,1.470064968E-1
3.589572998E0,-4.719121456E-1,3.850930929E-1,-2.609897964E-2
3.592419812E0,-5.869607329E-1,8.484831452E-1,-3.818973005E-1
3.593656036E0,-6.183860302E-1,7.318366766E-1,-4.298342168E-1
3.596522543E0,-6.540724039E-1,4.420847595E-1,-2.913498282E-1
3.597762421E0,-6.338323355E-1,5.486112088E-2,-6.977482140E-2
3.600525382E0,-4.857605994E-1,-3.824299276E-1,1.464738697E-1
3.602347805E0,-2.290318608E-1,-5.779059529E-1,2.434129268E-1
3.604728004E0,6.924218684E-2,-5.619270205E-1,2.673813701E-1
3.606410536E0,2.881540358E-1,-4.788363874E-1,3.169161677E-1
3.608261498E0,4.058657587E-1,-2.018676102E-1,2.945456207E-1
3.610079690E0,4.527373910E-1,2.812298238E-1,9.853696078E-2
3.612495613E0,4.383563101E-1,8.032094240E-1,-2.316950262E-1
3.614278805E0,4.053331316E-1,9.795106649E-1,-4.719121456E-1
3.616674613E0,3.004045784E-1,6.775081754E-1,-4.458131790E-1
3.618270921E0,7.616640627E-2,3.451456726E-1,-2.641855776E-1
3.620665459E0,-1.912149638E-1,-4.793690052E-3,-1.331580617E-2
3.622521498E0,-3.579288721E-1,-5.384911895E-1,2.567287385E-1
3.625206850E0,-4.095941782E-1,-7.462177277E-1,3.286340833E-1
3.626608267E0,-3.893541694E-1,-6.301039457E-1,2.450108230E-1
3.629157728E0,-3.414172530E-1,-3.787015080E-1,1.374191195E-1
3.630722228E0,-2.945456207E-1,-3.568635881E-2,5.592638254E-2
3.633033844E0,-2.173139453E-1,4.234426320E-1,-8.468852192E-2
3.634847228E0,-8.202536404E-2,8.005462289E-1,-2.450108230E-1
3.637104151E0,9.534116834E-2,7.850999236E-1,-2.849582434E-1
3.638918921E0,2.460760921E-1,5.203816891E-1,-2.071939409E-1
3.641223344E0,3.984089196E-1,-2.396845073E-2,5.273059011E-2
3.643068305E0,4.596616030E-1,-3.488741219E-1,2.024002522E-1
3.645750504E0,5.448827744E-1,-4.218447208E-1,2.210423797E-1
3.647600767E0,6.892260909E-1,-4.607268870E-1,1.768338978E-1
3.649829466E0,7.733820081E-1,-3.755057156E-1,1.448759735E-1
3.651216382E0,6.807039976E-1,4.048004746E-2,8.255799860E-2
3.653898658E0,4.862932265E-1,4.788363874E-1,1.810949668E-2
3.655246536E0,3.344930410E-1,6.471481323E-1,-4.687163606E-2
3.658002427E0,2.998719513E-1,5.523396134E-1,-1.257012039E-1
3.659283536E0,2.950782478E-1,1.608549356E-1,-1.054611802E-1
3.662105620E0,1.933455020E-1,-1.352885813E-1,5.858954508E-3
3.663548267E0,2.503371425E-2,-3.163835406E-1,1.741707325E-1
3.666208773E0,-4.580637068E-2,-5.033374429E-1,3.206445873E-1
3.667956305E0,1.091896072E-1,-3.201119602E-1,2.263686955E-1
3.670247620E0,1.555286050E-1,-1.832254827E-1,1.699096859E-1
3.671475536E0,1.012001261E-1,1.459412277E-1,1.299622655E-1
3.674315312E0,-1.571265012E-1,5.640575290E-1,1.150485575E-1
3.675639844E0,-4.314320982E-1,7.739146352E-1,1.917476021E-2
3.678418735E0,-5.704491138E-1,7.392935157E-1,-1.922802329E-1
3.679747344E0,-6.375607848E-1,3.861583769E-1,-3.531351686E-1
3.682421921E0,-7.243798375E-1,-8.894958347E-2,-3.238403797E-1
3.683976959E0,-7.978830934E-1,-3.952131271E-1,-1.502022892E-1
3.686626350E0,-7.440872192E-1,-5.699164867E-1,1.059938148E-1
3.688319613E0,-3.174487948E-1,-4.926848114E-1,3.536677957E-1
3.690256767E0,-8.735168725E-2,-3.723099232E-1,3.515372574E-1
3.691915536E0,4.340952635E-1,-1.560612470E-1,3.094593287E-1
3.694401651E0,9.326390028E-1,-3.621899337E-2,2.684466541E-1
3.696285805E0,1.421595454E0,4.452805519E-1,9.747169912E-2
3.698491036E0,1.555286050E0,7.627293468E-1,-3.036003746E-2
3.700526536E0,1.570199847E0,5.741775632E-1,-2.982740477E-2
3.702516844E0,1.471130252E0,3.201119602E-1,-1.065264456E-2
3.704338190E0,1.241033077E0,6.072007492E-2,1.012001187E-2
3.707093158E0,9.369000793E-1,-2.039981484E-1,3.462109342E-2
3.708487613E0,6.141249537E-1,-3.691141307E-1,4.154531285E-2
3.710615536E0,2.359560728E-1,-3.366235793E-1,1.970739290E-2
3.712652690E0,-2.125202566E-1,4.261057824E-2,-7.989483327E-2
3.714709997E0,-7.227819562E-1,5.193164349E-1,-1.976065636E-1
3.716410190E0,-1.196824670E0,7.398261428E-1,-2.705771625E-1
3.718909959E0,-1.570199847E0,6.476807594E-1,-3.424825370E-1
3.720646959E0,-1.804025412E0,4.974785149E-1,-4.585963488E-1
3.722967613E0,-1.939313889E0,1.906823367E-1,-4.617921412E-1
3.724671882E0,-1.975532889E0,-1.038632840E-1,-3.270362020E-1
3.727482235E0,-1.854625463E0,-3.147856593E-1,-1.123853996E-1
3.729120767E0,-1.475391269E0,-4.106594622E-1,1.049285457E-1
3.731511696E0,-9.214537740E-1,-3.605920076E-1,1.800296903E-1
3.732799613E0,-2.114549875E-1,-2.157160491E-1,2.050634027E-1
3.735579658E0,4.490089715E-1,-1.864212751E-2,2.327602804E-1
3.736816536E0,9.358348250E-1,2.897519469E-1,2.599245310E-1
3.739682619E0,1.196824670E0,6.535397172E-1,2.508697808E-1
3.740931305E0,1.296959519E0,8.729842305E-1,1.949433982E-1
3.743785812E0,1.341700554E0,6.439523697E-1,1.411475390E-1
3.745045497E0,1.357146859E0,1.145159304E-1,9.214537591E-2
3.747889350E0,1.314003706E0,-3.328951299E-1,6.178534031E-2
3.749687921E0,1.098287702E0,-6.652576327E-1,1.917476058E-1
3.751926542E0,9.949570298E-1,-5.773733258E-1,2.386192381E-1
3.753104613E0,8.127967715E-1,-2.274339646E-1,3.046656251E-1
3.755995158E0,7.030745149E-1,8.788431436E-2,3.355582952E-1
3.757283151E0,5.347627401E-1,5.464806557E-1,2.018676102E-1
3.760098504E0,3.334277868E-1,7.281082273E-1,6.072007492E-2
3.761303690E0,6.018744037E-2,5.938849449E-1,-2.716424316E-2
3.764115267E0,-2.407497615E-1,4.868258536E-1,-1.400822699E-1
3.765544728E0,-5.496764779E-1,2.625876963E-1,-1.422128081E-1
3.768306465E0,-8.277105093E-1,-1.171790902E-2,-4.846953228E-2
3.769987882E0,-9.629990458E-1,-1.709749401E-1,7.510114461E-2
3.771818574E0,-8.820389509E-1,-4.910869002E-1,2.498045117E-1
3.773614151E0,-6.748450398E-1,-5.150553584E-1,3.536677957E-1
3.776065074E0,-4.314320982E-1,-2.599245310E-1,3.382214606E-1
3.777747728E0,-1.986718178E-1,1.065264493E-1,2.636529505E-1
3.780148767E0,-6.870955974E-2,4.181163013E-1,1.938781291E-1
3.781903805E0,-3.142530099E-2,6.301039457E-1,7.510114461E-2
3.784197151E0,-5.858954508E-3,8.548747301E-1,-1.507349163E-1
3.786007690E0,7.669904083E-2,7.254450917E-1,-3.041329980E-1
3.788790119E0,1.832254827E-1,2.503371537E-1,-2.545982003E-1
3.790247113E0,3.094593287E-1,-2.375539690E-1,-5.326322466E-2
3.792413651E0,4.671184719E-1,-5.704491138E-1,1.880191714E-1
3.794145420E0,6.823018789E-1,-5.688512325E-1,3.281014562E-1
3.796578190E0,9.448895454E-1,-3.712446690E-1,3.653857112E-1
3.798264574E0,1.176051974E0,-1.374191195E-1,3.478088379E-1
3.800645074E0,1.262871027E0,2.391518652E-1,2.695119083E-1
3.802392382E0,1.152616143E0,6.135923266E-1,1.704423130E-1
3.804792844E0,7.835019827E-1,8.181231022E-1,-4.953479767E-2
3.806487651E0,5.070658922E-1,6.008091569E-1,-2.146507949E-1
3.809324888E0,2.311623842E-1,3.270362020E-1,-3.467435837E-1
3.810894651E0,-9.214537591E-2,2.024002373E-2,-3.227751255E-1
3.813395888E0,-4.255731404E-1,-2.945456207E-1,-1.059938148E-1
3.814597190E0,-6.578007936E-1,-5.081311464E-1,1.480717659E-1
3.817464273E0,-6.945524216E-1,-4.889563918E-1,2.817624509E-1
3.819188959E0,-6.471481323E-1,-2.924150825E-1,2.727077007E-1
3.821567157E0,-6.514092088E-1,-1.225054078E-2,2.013349831E-1
3.822994613E0,-7.073355913E-1,2.391518652E-1,6.498113275E-2
3.825669927E0,-6.876282096E-1,5.182511806E-1,-1.832254827E-1
3.826962690E0,-5.656554103E-1,6.982808709E-1,-4.452805519E-1
3.829773080E0,-3.962783813E-1,6.705839634E-1,-5.251753926E-1
3.831667536E0,-2.524676621E-1,2.295644879E-1,-9.587380290E-2
3.833817888E0,-2.173139453E-1,3.568635881E-2,1.225054115E-1
3.835049613E0,-7.084008306E-2,-3.547330499E-1,4.660531878E-1
3.837886427E0,1.794970632E-1,-5.752428174E-1,5.635249019E-1
3.839278497E0,4.862932265E-1,-5.470132828E-1,4.026699662E-1
3.841990119E0,7.643272281E-1,-3.984089196E-1,1.704423130E-1
3.843250420E0,9.283779860E-1,1.757686399E-2,-2.769687586E-2
3.845948959E0,9.480853677E-1,4.538026452E-1,-1.054611802E-1
3.847423997E0,8.612663150E-1,8.953547478E-1,-1.475391239E-1
3.850198119E0,7.771103978E-1,1.106809735E0,-1.997370869E-1
3.852065690E0,6.764429212E-1,5.512743592E-1,-1.070590764E-1
3.853978267E0,5.954828262E-1,3.339604139E-1,-6.391586363E-2
3.855697151E0,3.568635881E-1,-1.864212751E-2,3.462109342E-2
3.858006305E0,7.350324839E-2,-4.202468395E-1,2.087918371E-1
3.859600267E0,-1.784317940E-1,-6.727145314E-1,3.552657068E-1
3.862090690E0,-3.632551730E-1,-4.649879336E-1,3.281014562E-1
3.863765574E0,-3.952131271E-1,-2.221076339E-1,2.316950262E-1
3.866101651E0,-4.559331834E-1,1.427454352E-1,1.246359423E-1
3.867848497E0,-5.576659441E-1,5.832322836E-1,-2.343581803E-2
3.870671542E0,-6.098638773E-1,9.092032313E-1,-1.571265012E-1
3.871990190E0,-5.992112756E-1,7.664577961E-1,-1.438107044E-1
3.874312267E0,-5.060006380E-1,3.392867148E-1,7.989482954E-3
3.876080305E0,-2.769687474E-1,-3.142530024E-1,2.471413612E-1
3.878490728E0,2.130528912E-2,-7.765777707E-1,4.095941782E-1
3.880151613E0,3.051982522E-1,-7.520766854E-1,4.426173866E-1
3.882566805E0,5.427522659E-1,-5.150553584E-1,4.436826408E-1
3.884331613E0,7.824367285E-1,-1.597896665E-1,4.340952635E-1
3.886812997E0,1.025849700E0,1.480717659E-1,3.707120419E-1
3.888538613E0,1.263403654E0,5.113269091E-1,1.784317940E-1
3.891217888E0,1.460477591E0,7.558051348E-1,-3.089267015E-2
3.892888536E0,1.510012388E0,6.034722924E-1,-1.225054115E-1
3.895302119E0,1.450890183E0,5.496764779E-1,-1.166464612E-1
3.896483113E0,1.227717280E0,4.468784332E-1,-6.764429063E-2
3.899370426E0,9.347695708E-1,2.274339646E-1,2.396845073E-2
3.900649920E0,6.386260390E-1,-7.776430249E-2,1.294296384E-1
3.903452234E0,3.483414650E-1,-2.503371537E-1,1.869539171E-1
3.904811305E0,7.723167539E-2,-3.643204570E-1,2.471413612E-1
3.907520272E0,-2.194444835E-1,-3.760383427E-1,2.466087192E-1
3.908824805E0,-5.539374948E-1,-7.137271762E-2,7.030745596E-2
3.911624003E0,-1.015729666E0,7.483482957E-1,-3.712446690E-1
3.913410728E0,-1.234108925E0,9.747169614E-1,-4.852279723E-1
3.915661965E0,-1.401355386E0,7.398261428E-1,-3.041329980E-1
3.916869728E0,-1.557416677E0,3.600593805E-1,3.728425596E-3
3.919730734E0,-1.601092458E0,-1.086569726E-1,2.886866629E-1
3.920971267E0,-1.493500710E0,-5.832322836E-1,4.340952635E-1
3.923833888E0,-1.133973956E0,-7.483482957E-1,3.627225459E-1
3.925119228E0,-5.848301649E-1,-7.717841268E-1,2.247707993E-1
3.927838574E0,2.556634694E-2,-5.869607329E-1,1.507349163E-1
3.929264536E0,6.348975897E-1,-4.580637068E-2,1.102548689E-1
3.932040080E0,1.196824670E0,6.024070382E-1,1.432780623E-1
3.933717690E0,1.690042019E0,8.916263580E-1,3.009372056E-1
3.935597959E0,2.066612959E0,8.170578480E-1,4.569984376E-1
3.937417690E0,2.275937557E0,5.315669775E-1,4.788363874E-1
3.939791459E0,2.292448997E0,1.869539171E-1,3.621899188E-1
3.941483343E0,2.102832079E0,-1.320927888E-1,2.167813182E-1
3.943908767E0,1.802427411E0,-4.277036786E-1,1.576591432E-1
3.945606113E0,1.529187083E0,-6.423544884E-1,1.842907518E-1
3.947966843E0,1.313471079E0,-5.326322317E-1,1.992044598E-1
3.949723536E0,1.019458055E0,-1.123853996E-1,1.810949594E-1
3.952493426E0,6.237123609E-1,4.005394280E-1,1.326254308E-1
3.954036574E0,2.343581766E-1,7.717841268E-1,1.027980223E-1
3.956039690E0,-1.922802329E-1,7.819041014E-1,5.486112088E-2
3.957764113E0,-5.347627401E-1,5.198490620E-1,-5.326322466E-2
3.960207113E0,-8.101336360E-1,1.006674916E-1,-1.752360016E-1
3.962012536E0,-1.083373904E0,-2.322276533E-1,-2.476739883E-1
3.964251459E0,-1.337439537E0,-3.073287904E-1,-2.359560728E-1
3.966167113E0,-1.465803862E0,-3.547330499E-1,-1.107875034E-1
3.968566997E0,-1.452488065E0,-2.194444835E-1,1.065264456E-3
3.970162766E0,-1.132376075E0,2.066612989E-1,1.757686399E-2
3.972900426E0,-7.195861340E-1,5.097290277E-1,-8.415589482E-2
3.974482959E0,-2.716424465E-1,4.245078862E-1,-8.202536404E-2
3.976968772E0,8.788431436E-2,2.327602804E-1,-9.587380104E-3
3.978238959E0,3.430151641E-1,1.938781291E-1,3.888215125E-2
3.981036541E0,5.395564437E-1,7.776430249E-2,1.081243455E-1
3.982922805E0,7.270429730E-1,-1.518001854E-1,1.741707325E-1
3.985139618E0,9.118663669E-1,-3.083940744E-1,1.699096859E-1
3.986376420E0,1.061536074E0,-3.201119602E-1,8.042746782E-2
3.989243388E0,1.109472990E0,-4.953479767E-2,-1.065264493E-1
3.990510920E0,1.016262293E0,4.585963488E-1,-2.993393242E-1
3.993346657E0,8.080030680E-1,8.245146871E-1,-3.382214606E-1
3.995092228E0,5.464806557E-1,8.815063238E-1,-2.306297570E-1
3.997385157E0,3.153182864E-1,6.460828781E-1,-6.551376730E-2
3.998627920E0,1.209075153E-1,1.645833552E-1,8.575379103E-2
4.001453618E0,-6.764429063E-2,-3.813646734E-1,1.832254827E-1
4.002685882E0,-2.615224123E-1,-7.653924823E-1,2.284992188E-1
4.005556734E0,-4.836300611E-1,-7.552725077E-1,1.757686287E-1
4.006796459E0,-6.226470470E-1,-4.303668439E-1,3.994741663E-2
4.009533382E0,-6.274407506E-1,-2.929477207E-2,-9.427590668E-2
4.010928651E0,-5.518069863E-1,4.282363057E-1,-1.715075821E-1
4.013762964E0,-4.282363057E-1,7.265103459E-1,-1.320927888E-1
4.015589190E0,-1.933455020E-1,5.661880374E-1,1.251685768E-1
4.017282228E0,-9.747169912E-2,4.282363057E-1,1.976065636E-1
4.019091651E0,1.075917110E-1,5.592638254E-2,2.892192900E-1
4.021561613E0,3.616572917E-1,-4.569984376E-1,3.403519988E-1
4.023253228E0,6.391586661E-1,-8.580704927E-1,3.424825370E-1
4.025912690E0,1.035969734E0,-7.536746264E-1,1.608549356E-1
4.027266766E0,1.208542466E0,-7.669904083E-2,-8.042746782E-2
4.029633536E0,1.245294094E0,8.101336360E-1,-3.009372056E-1
4.031391959E0,1.142496109E0,1.399757504E0,-3.355582952E-1
4.034234695E0,9.640643597E-1,1.360875368E0,-2.183792144E-1
4.035525343E0,7.856325507E-1,1.041828632E0,-1.635181010E-1
4.038048766E0,5.709817410E-1,4.511395097E-1,-1.491370201E-1
4.039636651E0,2.972087860E-1,-3.589941263E-1,-6.391586363E-2
4.042028805E0,-4.687163606E-2,-8.143946528E-1,9.054748341E-3
4.043807036E0,-4.090615511E-1,-7.744472623E-1,5.113269389E-2
4.046134497E0,-6.535397172E-1,-5.779059529E-1,8.255799860E-2
4.047839843E0,-7.265103459E-1,-2.359560728E-1,3.941478580E-2
4.050508690E0,-6.897587180E-1,2.604571581E-1,-1.043959185E-1
4.052609343E0,-6.114618182E-1,7.344998717E-1,-2.178465873E-1
4.054771503E0,-5.704491138E-1,8.255799413E-1,-2.029328793E-1
4.056402766E0,-5.235774517E-1,6.791061163E-1,-1.326254308E-1
4.058843272E0,-4.676510990E-1,3.281014562E-1,-5.699164793E-2
