"Time (s)","Acceleration x (m/s^2)","Acceleration y (m/s^2)","Acceleration z (m/s^2)"
6.176462000E-3,2.348711967E0,9.392453194E0,2.138022184E0
8.091731000E-3,3.378218651E0,9.270348549E0,1.228225470E0
1.027080800E-2,3.519476414E0,9.050082207E0,7.015010715E-1
1.197761500E-2,2.944868088E0,9.040505409E0,4.189853072E-1
1.479007500E-2,1.893813491E0,9.598354340E0,3.112462163E-1
1.656307700E-2,-5.506663918E-1,1.106360626E1,2.322375625E-1
1.887330600E-2,-1.546654344E0,1.136767006E1,1.963245422E-1
2.020111500E-2,-3.303998232E0,1.129823780E1,2.633621991E-1
2.294165200E-2,-3.955221176E0,1.044829655E1,8.451532125E-1
2.415553900E-2,-3.047818661E0,9.095572472E0,2.006340981E0
2.704515200E-2,-1.180341482E0,7.623138428E0,3.509899616E0
2.824507700E-2,7.374141216E-1,6.555324078E0,5.094861031E0
3.114803600E-2,1.944091797E0,6.543353081E0,6.742072105E0
3.237946200E-2,1.788468719E0,7.422025204E0,8.255207062E0
3.525099800E-2,3.136404157E-1,8.461109161E0,9.205705643E0
3.704534600E-2,-1.838746905E0,9.358934402E0,8.997409821E0
3.929357500E-2,-1.941697598E0,9.339780807E0,8.487444878E0
4.047976900E-2,-9.289502501E-1,8.820239067E0,7.010222435E0
4.336203600E-2,2.451662540E0,7.618350029E0,4.220977783E0
4.464015400E-2,4.031835556E0,7.400477409E0,2.427720547E0
4.746422900E-2,3.792415380E0,8.236053467E0,1.127668977E0
4.867338500E-2,1.819593310E0,9.787496567E0,2.944868207E-1
5.139669200E-2,-9.600749016E-1,1.125993061E1,-1.268926859E-1
5.279376900E-2,-3.356670856E0,1.187524033E1,-4.309562966E-2
5.566826700E-2,-4.321534157E0,1.123359394E1,5.003881454E-1
5.730784600E-2,-3.442862034E0,9.768342972E0,1.352723956E0
5.923580800E-2,-1.386242747E0,8.202534676E0,2.238578558E0
6.101715400E-2,7.517793179E-1,7.149086475E0,2.880224705E0
6.343388500E-2,2.183511972E0,6.866570473E0,3.241749048E0
6.508326900E-2,2.609679937E0,7.173028469E0,3.497928619E0
6.751326900E-2,2.195482969E0,7.841010571E0,3.936067581E0
6.916511500E-2,1.053448796E0,8.688557625E0,4.886565685E0
7.152246200E-2,-6.847416759E-1,9.440337181E0,6.215347767E0
7.327142300E-2,-2.640804529E0,9.902418137E0,7.400477409E0
7.613072800E-2,-4.395754337E0,1.001255131E1,8.030152321E0
7.755523100E-2,-5.295974255E0,9.866505623E0,7.948749542E0
7.967311500E-2,-4.833893299E0,9.720458984E0,7.264008045E0
8.136980800E-2,-3.031059265E0,9.536105156E0,6.050147533E0
8.381753900E-2,-3.950432837E-1,9.378087997E0,4.637568474E0
8.548403900E-2,2.269703150E0,9.193734169E0,3.248931646E0
8.786642300E-2,4.139574528E0,8.968679428E0,2.145204782E0
8.960273100E-2,4.757278919E0,8.719682693E0,1.604115129E0
9.202192300E-2,4.175487995E0,8.516175270E0,1.568202138E0
9.369676900E-2,2.786850691E0,8.669404030E0,1.826775908E0
9.656503600E-2,-9.576806799E-3,9.832986832E0,1.987187386E0
9.818357700E-2,-2.082955360E0,1.082179165E1,1.841141105E0
1.006426130E-1,-3.876212597E0,1.129823780E1,1.769315004E0
1.018746920E-1,-4.699818134E0,1.086967564E1,2.109291792E0
1.047110360E-1,-4.048594952E0,9.485827446E0,2.896984100E0
1.059411150E-1,-2.037465572E0,7.625532627E0,3.931279182E0
1.088144210E-1,4.884171486E-1,6.141127586E0,5.109226227E0
1.101360390E-1,2.430114746E0,5.813121796E0,6.318298340E0
1.129173440E-1,2.784456491E0,6.725312710E0,7.433996201E0
1.143110380E-1,1.292868972E0,8.044517517E0,8.070854187E0
1.170207670E-1,-1.027112484E0,9.229647636E0,8.154650688E0
1.188184230E-1,-2.650381327E0,9.957485199E0,7.726089001E0
1.210604970E-1,-2.542642117E0,9.979032516E0,6.713341713E0
1.222566920E-1,-6.536170840E-1,9.327810287E0,5.042188644E0
1.251288050E-1,2.099714994E0,8.379706383E0,2.899378300E0
1.264337690E-1,4.371812344E0,7.970297337E0,9.097966552E-1
1.292319590E-1,4.953603268E0,8.556877136E0,-3.758896589E-1
1.304640380E-1,3.567360640E0,9.832986832E0,-1.034295082E0
1.331959620E-1,8.643068075E-1,1.114740276E1,-1.168370485E0
1.345948850E-1,-1.917755604E0,1.185608673E1,-7.996633649E-1
1.374381510E-1,-3.655946016E0,1.154005241E1,1.580173075E-1
1.390892310E-1,-3.280056238E0,9.303867340E0,2.231395960E0
1.409328080E-1,-2.535459518E0,8.418013573E0,2.966415882E0
1.427370000E-1,-6.631938815E-1,6.986280441E0,4.288015366E0
1.451998460E-1,1.051054597E0,6.411672115E0,5.267243862E0
1.468340770E-1,2.003946781E0,6.533776283E0,5.813121796E0
1.492814230E-1,2.106897593E0,7.072471619E0,6.038176537E0
1.509264620E-1,1.340752959E0,7.896077156E0,6.461950302E0
1.533038080E-1,-9.504981041E-1,9.222464561E0,7.879317760E0
1.550385000E-1,-2.731784105E0,9.753977776E0,8.724471092E0
1.579021130E-1,-4.264073372E0,9.718064308E0,8.772355080E0
1.593998460E-1,-4.836287498E0,9.598354340E0,8.027758598E0
1.615324230E-1,-3.995922565E0,9.615114212E0,6.615179062E0
1.632716150E-1,-2.061407566E0,9.727641106E0,4.872200489E0
1.656757690E-1,3.064578176E-1,9.746794701E0,3.124433279E0
1.673755000E-1,2.468421936E0,9.583989143E0,1.673547029E0
1.697511150E-1,3.938461781E0,9.368511200E0,7.613561153E-1
1.714835000E-1,4.367023945E0,9.143456459E0,3.303998411E-1
1.739384230E-1,3.794809580E0,9.011775017E0,2.035071403E-1
1.755924620E-1,2.640804529E0,9.294290543E0,2.346317619E-1
1.784437660E-1,1.074996591E0,1.022084713E1,4.860229492E-1
1.801227690E-1,-2.042253971E0,1.144428444E1,1.000776291E0
1.825194590E-1,-3.045424461E0,1.149216843E1,1.233013868E0
1.837185000E-1,-4.240131378E0,1.078348446E1,1.855506301E0
1.865873820E-1,-3.813963413E0,9.239224434E0,2.817975283E0
1.878210000E-1,-1.920149803E0,7.489062786E0,4.096478939E0
1.906907660E-1,4.453215301E-1,6.155492783E0,5.506663799E0
1.919230000E-1,2.161964178E0,5.932831764E0,6.986280441E0
1.947937280E-1,2.298433542E0,6.830657482E0,8.348581314E0
1.960568080E-1,7.015010715E-1,8.066065788E0,9.210494041E0
1.988967280E-1,-1.470039845E0,9.196128845E0,9.452308655E0
2.007971920E-1,-2.640804529E0,9.696516991E0,8.439560890E0
2.029443050E-1,-1.103726983E0,8.983044624E0,6.866570473E0
2.041930770E-1,1.699883223E0,7.900865555E0,4.805162907E0
2.070129590E-1,4.240131378E0,7.230489254E0,2.652775526E0
2.083403850E-1,4.994304657E0,7.625532627E0,8.595184088E-1
2.111156890E-1,3.495534420E0,8.987833023E0,-4.141969085E-1
2.123596920E-1,5.291185975E-1,1.074996567E1,-1.101332784E0
2.150852690E-1,-2.554613113E0,1.201889229E1,-1.144428372E0
2.165318850E-1,-4.565742493E0,1.203086376E1,-5.961562395E-1
2.193219200E-1,-4.683058739E0,1.075954247E1,3.208230138E-1
2.209420380E-1,-3.169923067E0,8.911218643E0,1.410184860E0
2.228670380E-1,-9.504981041E-1,7.340622425E0,2.446874142E0
2.246254230E-1,1.034295082E0,6.665457726E0,3.277662039E0
2.273050770E-1,2.133233786E0,6.789956093E0,3.857059002E0
2.287293850E-1,2.202665567E0,7.333439827E0,4.288015366E0
2.313006920E-1,1.414973259E0,8.173804283E0,5.080495834E0
2.328445380E-1,6.464344263E-2,9.074024200E0,6.411672115E0
2.354582690E-1,-1.596932530E0,9.732429504E0,7.867346764E0
2.369934230E-1,-3.229778051E0,9.844957352E0,8.765172005E0
2.398011510E-1,-4.280832767E0,9.560047150E0,8.779537201E0
2.411397690E-1,-4.153939724E0,9.394847870E0,8.109161377E0
2.434520770E-1,-2.829946518E0,9.368511200E0,6.864176273E0
2.451880380E-1,-7.134721279E-1,9.354146004E0,5.286397457E0
2.477721150E-1,1.561019540E0,9.323021889E0,3.672705412E0
2.492776540E-1,3.327940464E0,9.234436035E0,2.360682964E0
2.517171540E-1,4.129997730E0,8.978256226E0,1.307234168E0
2.534633850E-1,3.438073635E0,8.736441612E0,1.110909581E0
2.559385770E-1,2.202665567E0,8.813055992E0,1.113303781E0
2.574930770E-1,7.038952708E-1,9.579200745E0,1.175553083E0
2.603439970E-1,-1.165976286E0,1.066377449E1,1.194706678E0
2.620700380E-1,-3.210624456E0,1.131499767E1,1.225831270E0
2.644251120E-1,-4.606443882E0,1.097502041E1,1.477222443E0
2.656346540E-1,-4.541800499E0,9.713275909E0,2.185906172E0
2.684928430E-1,-2.925714493E0,8.027758598E0,3.282450438E0
2.701375000E-1,-6.440402865E-1,6.569689274E0,4.589684486E0
2.725956890E-1,1.268926859E0,6.052541733E0,6.002263546E0
2.740932690E-1,1.939303398E0,6.878541470E0,7.541735172E0
2.766981510E-1,9.241618514E-1,8.233659744E0,8.741230011E0
2.779566150E-1,-1.007958889E0,9.282320023E0,9.212887764E0
2.808003050E-1,-2.272097349E0,9.727641106E0,8.906430244E0
2.825936920E-1,-7.781155705E-1,9.155426979E0,7.134721279E0
2.848411510E-1,5.195417404E-1,8.729259491E0,6.265625954E0
2.861763460E-1,3.426102638E0,7.788338184E0,4.129997730E0
2.889088050E-1,5.456385612E0,7.307103634E0,1.798045516E0
2.901463850E-1,5.408501625E0,7.943961143E0,3.112462163E-2
2.930116510E-1,3.198653460E0,9.581595421E0,-9.097966552E-1
2.943158080E-1,-1.987187415E-1,1.134851646E1,-1.209071875E0
2.969808080E-1,-3.385401249E0,1.231816769E1,-1.048660398E0
2.983826540E-1,-5.176264286E0,1.194227791E1,-4.788403511E-1
3.012164580E-1,-4.991910458E0,1.044590187E1,4.548983276E-1
3.028845380E-1,-2.193088770E0,7.730877399E0,2.281674147E0
3.047130000E-1,-1.065419793E0,7.077260017E0,2.832340717E0
3.065041920E-1,8.140285611E-1,6.512228489E0,3.742137194E0
3.089844610E-1,1.908178806E0,7.060500622E0,4.750096321E0
3.105912310E-1,1.589749932E0,7.762001991E0,5.456385612E0
3.130672310E-1,6.248866320E-1,8.394071579E0,6.531382084E0
3.147065000E-1,-8.619126081E-1,8.932766914E0,7.946355343E0
3.170906920E-1,-2.557007313E0,9.342175484E0,9.176975250E0
3.189037690E-1,-4.039018154E0,9.516951561E0,9.651026726E0
3.216771510E-1,-4.627991676E0,9.600749016E0,9.117119789E0
3.232472310E-1,-3.964797974E0,9.646238327E0,7.659051418E0
3.253464610E-1,-2.114080191E0,9.612719536E0,5.695806026E0
3.272581150E-1,5.075707436E-1,9.560047150E0,3.773261786E0
3.295333840E-1,3.090914488E0,9.380482674E0,2.152387381E0
3.310458840E-1,4.757278919E0,9.203310966E0,9.959878922E-1
3.333538080E-1,4.982333660E0,9.054870605E0,3.064578176E-1
3.350849230E-1,3.969586372E0,9.057265282E0,-5.985504389E-2
3.375291920E-1,2.324769735E0,9.363722801E0,-1.843535304E-1
3.392703840E-1,4.165911078E-1,1.007001209E1,-1.125274822E-1
3.420082660E-1,-1.661576033E0,1.090798283E1,1.580173075E-1
3.436335770E-1,-3.655946016E0,1.130063248E1,5.243301988E-1
3.460864200E-1,-5.001487255E0,1.099656868E1,1.165976286E0
3.473210770E-1,-5.102043629E0,9.947908401E0,2.207453966E0
3.501541120E-1,-3.835511208E0,8.322244644E0,3.548206806E0
3.516115770E-1,-1.697489023E0,6.744466305E0,5.188235283E0
3.542569970E-1,5.770025849E-1,5.930437565E0,6.916848660E0
3.555240770E-1,1.965639591E0,6.342240334E0,8.621520042E0
3.583596890E-1,1.714248419E0,7.436390400E0,9.809044838E0
3.596079230E-1,2.537853718E-1,8.573636055E0,1.013226128E1
3.624629580E-1,-1.137245774E0,9.406818390E0,9.696516991E0
3.643591920E-1,-7.948749661E-1,9.394847870E0,7.783549786E0
3.665051120E-1,1.197100878E-1,9.047688484E0,6.823474884E0
3.677601540E-1,2.604891539E0,8.154650688E0,4.503493309E0
3.705734200E-1,5.372588634E0,7.838616371E0,8.044517636E-1
3.718085770E-1,4.908113480E0,8.947132111E0,-1.101332784E0
3.746766120E-1,2.583343744E0,1.067813969E1,-2.363077164E0
3.759052690E-1,-7.062895298E-1,1.211466026E1,-2.975992680E0
3.786315380E-1,-3.629609823E0,1.260786629E1,-2.796427488E0
3.800473080E-1,-5.099649429E0,1.198537350E1,-1.707065821E0
3.828826500E-1,-4.757278919E0,1.033576870E1,-1.484405100E-1
3.846090380E-1,-3.189076662E0,8.329427719E0,1.403002143E0
3.863807310E-1,-1.194706678E0,6.804321289E0,2.880224705E0
3.882163460E-1,6.272808313E-1,6.308721542E0,4.242525578E0
3.906491920E-1,1.620874524E0,6.476315498E0,5.339069843E0
3.922890380E-1,1.594538331E0,7.091625214E0,6.380547523E0
3.947470770E-1,7.469909191E-1,7.848193169E0,7.527369976E0
3.963831540E-1,-5.602431893E-1,8.537723541E0,8.817844391E0
3.987645000E-1,-1.977610588E0,9.030928612E0,1.007001209E1
4.005200380E-1,-3.179499865E0,9.016563416E0,1.062307262E1
4.033611890E-1,-3.670311213E0,8.808267593E0,1.026154804E1
4.048388080E-1,-3.131615877E0,8.702922821E0,8.899248123E0
4.070076150E-1,-1.699883223E0,8.822632790E0,6.825869083E0
4.088549230E-1,1.101332754E-1,9.148244858E0,4.625597477E0
4.111950770E-1,1.788468719E0,9.471462250E0,2.664746523E0
4.128339230E-1,3.040636063E0,9.694122314E0,1.266532660E0
4.151982310E-1,3.624821424E0,9.572018623E0,3.902548850E-1
4.169225380E-1,3.265691042E0,9.057265282E0,-2.202665508E-1
4.194415770E-1,2.454056740E0,9.227252960E0,-3.519476354E-1
4.211113080E-1,9.840168953E-1,1.015380955E1,-2.011129409E-1
4.239016500E-1,-1.151610970E0,1.117852783E1,5.985504389E-2
4.255744610E-1,-3.392583847E0,1.148019695E1,4.333505034E-1
4.279751500E-1,-4.673481941E0,1.074996567E1,1.156399369E0
4.291768460E-1,-4.218583584E0,9.248801231E0,2.358288765E0
4.320441500E-1,-2.212242365E0,7.529764175E0,3.873818398E0
4.332878460E-1,2.777273953E-1,6.397306919E0,5.597643375E0
4.361482270E-1,1.982398987E0,6.406883717E0,7.398083210E0
4.374741150E-1,1.999158382E0,7.371747017E0,8.947132111E0
4.402520730E-1,3.734954596E-1,8.508993149E0,9.892841339E0
4.415273070E-1,-1.601720929E0,9.265560150E0,1.007240677E1
4.443554580E-1,-2.355894566E0,9.392453194E0,9.562441826E0
4.461945770E-1,-6.464344263E-2,8.353369713E0,7.467514992E0
4.484018040E-1,1.259350061E0,7.896077156E0,6.466738701E0
4.495873460E-1,3.596091032E0,7.309497833E0,4.199429989E0
4.524702270E-1,4.431667328E0,7.654263020E0,1.874659896E0
4.537181920E-1,3.268085241E0,9.105149269E0,9.097966552E-2
4.565736120E-1,6.847416759E-1,1.098220348E1,-9.983820915E-1
4.577963460E-1,-2.114080191E0,1.224873543E1,-1.486799240E0
4.605011920E-1,-3.897760391E0,1.237562847E1,-1.470039845E0
4.619172690E-1,-3.962403774E0,1.142513084E1,-9.241618514E-1
4.647806880E-1,-2.533065319E0,9.868899345E0,-8.379705995E-2
4.664131920E-1,3.591302633E-1,7.709329605E0,1.278503656E0
4.682999230E-1,1.197100878E0,7.371747017E0,1.781286120E0
4.700772310E-1,2.394201756E0,7.213729858E0,2.715024710E0
4.725346920E-1,2.583343744E0,7.852981567E0,4.479551315E0
4.741743460E-1,1.972822189E0,8.389283180E0,5.834669590E0
4.766270770E-1,7.924807668E-1,8.705317497E0,7.153874874E0
4.782660000E-1,-1.005564690E0,8.853757858E0,8.434772491E0
4.806393460E-1,-2.935291290E0,8.848969460E0,9.315838814E0
4.823787690E-1,-4.302380562E0,8.939949036E0,9.677363396E0
4.852605350E-1,-4.680664539E0,9.133879662E0,9.141061783E0
4.866945000E-1,-4.031835556E0,9.406818390E0,7.685387611E0
4.888900380E-1,-2.413355350E0,9.665391922E0,5.695806026E0
4.908748460E-1,-1.628057212E-1,9.701305389E0,3.586514235E0
4.930736920E-1,2.075772762E0,9.445125580E0,1.956062794E0
4.947606540E-1,3.643975019E0,9.028534889E0,1.043871999E0
4.970923070E-1,4.170699596E0,8.695740700E0,7.326257229E-1
4.988296150E-1,3.713406801E0,8.736441612E0,6.081272364E-1
5.012934610E-1,2.576161146E0,9.349357605E0,3.711012602E-1
5.030846920E-1,9.050082564E-1,1.045308495E1,1.436520964E-1
5.058098040E-1,-1.146822572E0,1.124795914E1,4.788403213E-2
5.075144610E-1,-3.550601006E0,1.084094524E1,7.900865674E-1
5.098945340E-1,-3.792415380E0,1.027591324E1,1.345541358E0
5.112127310E-1,-3.157952070E0,8.853757858E0,2.765302896E0
5.139630730E-1,-1.570596337E0,7.326257229E0,4.024652958E0
5.151900000E-1,-5.985504389E-2,6.229712963E0,5.137956619E0
5.180664960E-1,7.206547260E-1,6.466738701E0,6.801927090E0
5.193198070E-1,-1.508347094E-1,8.097189903E0,9.320627213E0
5.221698420E-1,-1.845929503E0,9.059659004E0,1.040998936E1
5.235050000E-1,-3.062183857E0,9.282320023E0,1.030224991E1
5.262733420E-1,-2.516305923E0,8.983044624E0,9.241618156E0
5.280943070E-1,-9.576806799E-3,8.377311707E0,7.558494568E0
5.303147270E-1,3.320757866E0,7.419631004E0,5.161899090E0
5.315321920E-1,5.750872612E0,6.789956093E0,2.566584110E0
5.343824570E-1,5.975927353E0,7.438784599E0,4.357447028E-1
5.357133840E-1,3.957615376E0,9.497797966E0,-8.379706144E-1
5.384859960E-1,7.110779285E-1,1.179144382E1,-1.745373011E0
5.397518460E-1,-2.535459518E0,1.296939087E1,-2.437297344E0
5.424819610E-1,-4.625597477E0,1.251209831E1,-2.434903145E0
5.438345770E-1,-4.740519524E0,1.102529907E1,-1.472434044E0
5.466931500E-1,-3.165134668E0,9.311050415E0,1.699883193E-1
5.483273460E-1,-1.055842996E0,7.829039574E0,1.611297727E0
5.502315380E-1,7.637503147E-1,7.015010834E0,2.640804529E0
5.521654610E-1,1.927332401E0,6.871358871E0,3.514688015E0
5.546503840E-1,2.410961151E0,7.161057472E0,4.606443882E0
5.561104610E-1,2.212242365E0,7.635109425E0,6.189011574E0
5.585850380E-1,1.280897856E0,8.039729118E0,7.967903137E0
5.601900770E-1,-3.375824392E-1,8.504204750E0,9.730035782E0
5.625675000E-1,-2.250549555E0,8.954314232E0,1.091995430E1
5.644370000E-1,-3.900154591E0,9.186552048E0,1.099417400E1
5.671611880E-1,-4.675876141E0,9.267954826E0,1.000776291E1
5.685806540E-1,-3.028665066E0,9.275136948E0,7.240066051E0
5.707323460E-1,-1.793257117E0,9.351752281E0,6.215347767E0
5.724413460E-1,8.882488012E-1,9.488221169E0,4.098873138E0
5.750310000E-1,3.014299870E0,9.533711433E0,2.020706177E0
5.765172690E-1,4.441244125E0,9.524134636E0,-3.423708379E-1
5.789579610E-1,4.199429989E0,9.471462250E0,-9.983820915E-1
5.806281540E-1,3.186682463E0,9.607931137E0,-9.552865028E-1
5.830761150E-1,1.695094824E0,1.007719517E1,-7.326257229E-1
5.847414230E-1,-2.873042040E-2,1.094150162E1,-6.177040339E-1
5.875978030E-1,-1.884236693E0,1.154723454E1,-7.422025204E-1
5.892620380E-1,-3.485957623E0,1.156878281E1,-4.620809257E-1
5.916667260E-1,-4.094084740E0,1.074278259E1,7.206547260E-1
5.929071920E-1,-3.311181068E0,9.054870605E0,2.655169725E0
5.957345730E-1,-1.434126854E0,7.139509678E0,4.886565685E0
5.971433840E-1,6.129156351E-1,5.870582581E0,7.007828236E0
5.998376490E-1,1.783680320E0,5.834669590E0,8.935160637E0
6.011739610E-1,1.359906554E0,6.641515732E0,1.038125896E1
6.039411490E-1,-3.112462163E-1,7.553706169E0,1.113303757E1
6.052531150E-1,-1.951274395E0,8.315062523E0,1.135569859E1
6.080451490E-1,-2.545036316E0,8.690952301E0,1.099896240E1
6.098387300E-1,-6.919242740E-1,8.468291283E0,8.884882927E0
6.120860340E-1,5.147533417E-1,8.125920296E0,7.529764175E0
6.132942300E-1,2.949656487E0,7.484274387E0,4.271255970E0
6.161549960E-1,4.417302132E0,7.513004780E0,1.130063176E0
6.174049610E-1,4.316745758E0,8.547300339E0,-1.223437071E0
6.202589190E-1,2.602497339E0,1.036689377E1,-2.602497339E0
6.216477300E-1,-2.322375625E-1,1.210268974E1,-3.342305660E0
6.242469610E-1,-3.119644880E0,1.310346603E1,-3.483563423E0
6.257217690E-1,-4.769249916E0,1.270123959E1,-3.112462282E0
6.284669960E-1,-4.560954094E0,1.107557678E1,-2.051830769E0
6.309790720E-1,-1.728613615E0,7.999027729E0,5.554547906E-1
6.320481540E-1,6.488286853E-1,6.622362137E0,2.353500366E0
6.338965000E-1,2.533065319E0,6.375759125E0,4.060565948E0
6.363473070E-1,3.224989653E0,6.720524311E0,5.355829239E0
6.379490000E-1,2.449268341E0,7.208941460E0,6.418854713E0
6.405090380E-1,7.015010715E-1,7.757213593E0,7.742848396E0
6.420037300E-1,-1.242590666E0,8.327033043E0,9.378087997E0
6.443746540E-1,-3.035847664E0,8.681375504E0,1.076193619E1
6.464528840E-1,-4.553771496E0,8.669404030E0,1.108754826E1
6.489322650E-1,-5.410895824E0,8.657433510E0,1.011550236E1
6.504260770E-1,-5.236119270E0,9.021351814E0,8.365341187E0
6.528151920E-1,-3.888183594E0,9.504981041E0,6.279991150E0
6.543265000E-1,-1.781286120E0,9.742006302E0,4.173093796E0
6.568910000E-1,4.189853072E-1,9.627084732E0,2.430114746E0
6.584349610E-1,2.351106167E0,9.440337181E0,1.187524080E0
6.607681530E-1,3.687070608E0,9.296685219E0,2.873041928E-1
6.624923070E-1,4.067748547E0,9.088389397E0,-5.219359994E-1
6.650335770E-1,3.397372246E0,9.181763649E0,-1.132457376E0
6.666716530E-1,1.802833915E0,1.007480049E1,-1.175553083E0
6.694768800E-1,-5.099649429E-1,1.132696819E1,-8.092401624E-1
6.715485380E-1,-4.213795185E0,1.181777954E1,-6.464344263E-2
6.735453030E-1,-4.989516258E0,1.135091019E1,1.987187415E-1
6.747485000E-1,-5.049371243E0,9.847352028E0,1.053448796E0
6.776144180E-1,-3.308786631E0,8.202534676E0,2.494758129E0
6.788787690E-1,-9.074024558E-1,6.916848660E0,4.343081951E0
6.817178410E-1,1.216254473E0,6.974309444E0,7.426813602E0
6.829953460E-1,6.584054828E-1,7.862558365E0,9.040505409E0
6.857959570E-1,-9.289502501E-1,8.729259491E0,9.919178009E0
6.869870380E-1,-1.678335428E0,9.018958092E0,1.007480049E1
6.888957650E-1,-2.149993181E0,9.205705643E0,9.832986832E0
6.909322690E-1,-7.876923680E-1,8.808267593E0,8.858546257E0
6.929278410E-1,1.742978811E0,7.769184589E0,7.007828236E0
6.943800770E-1,4.017470360E0,6.890512466E0,4.714183331E0
6.969959950E-1,4.838681698E0,7.012616634E0,2.351106167E0
6.983474230E-1,3.538630009E0,8.470685959E0,4.501099288E-1
7.010993800E-1,4.979939461E-1,1.062546730E1,-7.254431248E-1
7.024024230E-1,-2.911349297E0,1.232774448E1,-1.302445769E0
7.050675000E-1,-5.197812080E0,1.279461384E1,-1.273715258E0
7.064841530E-1,-5.511452198E0,1.174834728E1,-7.206547260E-1
7.093061880E-1,-3.904942989E0,9.799467087E0,2.370259613E-1
7.109587300E-1,-1.268926859E0,7.764396191E0,1.240196466E0
7.128570770E-1,1.283292055E0,6.591237068E0,2.202665567E0
7.146575000E-1,3.009511471E0,6.588842869E0,3.160346270E0
7.171119230E-1,3.593696833E0,7.022193432E0,3.809175014E0
7.187186530E-1,3.093308687E0,7.532158375E0,4.367023945E0
7.211953840E-1,1.757344007E0,8.202534676E0,5.353435040E0
7.228347300E-1,-3.830722719E-2,9.097966194E0,6.821080685E0
7.253015380E-1,-2.123656988E0,9.832986832E0,8.133103371E0
7.269270000E-1,-4.256890774E0,9.926360130E0,8.508993149E0
7.297756490E-1,-5.674258232E0,9.701305389E0,7.910442352E0
7.312478840E-1,-5.097255230E0,9.610325813E0,6.160281181E0
7.333978460E-1,-2.918531895E0,9.713275909E0,4.800374508E0
7.350826150E-1,-1.582567334E0,9.710882187E0,4.079719543E0
7.375780000E-1,1.994369984E0,9.394847870E0,2.152387381E0
7.393710380E-1,3.399766445E0,9.208099365E0,1.558625340E0
7.415666150E-1,3.873818398E0,8.927978516E0,1.565807939E0
7.433896150E-1,3.490746021E0,8.590395927E0,1.896207690E0
7.458228460E-1,2.449268341E0,8.647856712E0,2.329558372E0
7.474112300E-1,9.121908545E-1,9.399636269E0,2.703053713E0
7.502626100E-1,-9.983820915E-1,1.032140350E1,2.817975283E0
7.519930380E-1,-2.942473888E0,1.065419769E1,2.755726099E0
7.543439950E-1,-4.170699596E0,1.004607010E1,2.901772499E0
7.555477690E-1,-3.950432777E0,8.774748802E0,3.629609823E0
7.584126490E-1,-2.317587137E0,7.369352818E0,4.843470097E0
7.596244610E-1,-1.987187415E-1,6.385335922E0,6.126761913E0
7.625162640E-1,1.118092179E0,6.461950302E0,7.419631004E0
7.637363070E-1,8.451532125E-1,7.366958618E0,8.542511940E0
7.666201490E-1,-5.961562395E-1,8.465897560E0,9.227252960E0
7.678615000E-1,-2.063801765E0,9.248801231E0,9.337387085E0
7.707246870E-1,-2.523488522E0,9.306262016E0,8.714894295E0
7.725979610E-1,-1.963245422E-1,8.315062523E0,6.332663536E0
7.747660720E-1,1.158793569E0,7.917624950E0,5.193023682E0
7.759422690E-1,3.603273630E0,7.457938194E0,2.743755102E0
7.788353800E-1,4.508281708E0,7.790732384E0,4.788403511E-1
7.800372300E-1,3.409343243E0,9.011775017E0,-1.132457376E0
7.829391490E-1,8.714894056E-1,1.072841740E1,-1.879448295E0
7.841622300E-1,-1.996764183E0,1.210508347E1,-1.968033791E0
7.869006920E-1,-3.988739967E0,1.244027233E1,-1.635239720E0
7.884004610E-1,-4.220977783E0,1.159990692E1,-9.528923035E-1
7.911477260E-1,-1.687912226E0,8.920795441E0,6.823474765E-1
7.928014610E-1,6.177040339E-1,7.264008045E0,1.941697598E0
7.946205380E-1,2.557007313E0,6.619967937E0,3.303998232E0
7.964163460E-1,3.670311213E0,6.789956093E0,4.477157116E0
7.988571530E-1,3.706224203E0,7.343016624E0,5.363011837E0
8.005094610E-1,2.681505919E0,8.010998726E0,6.289567947E0
8.029790000E-1,1.024718285E0,8.647856712E0,7.455543995E0
8.046158460E-1,-8.523358107E-1,9.150638580E0,8.774748802E0
8.070076920E-1,-2.698265314E0,9.181763649E0,9.543288231E0
8.087401920E-1,-4.129997730E0,8.947132111E0,9.344569206E0
8.116075720E-1,-4.745307922E0,9.030928612E0,8.370129585E0
8.130581920E-1,-4.189853191E0,9.504981041E0,6.804321289E0
8.152165380E-1,-2.657563925E0,1.008198357E1,4.987122059E0
8.169074610E-1,-8.355764151E-1,1.024478912E1,3.227383852E0
8.193528460E-1,9.097966552E-1,1.004846478E1,1.968033791E0
8.212456530E-1,2.521094322E0,9.643844604E0,1.259350061E0
8.233477690E-1,3.763684988E0,9.097966194E0,7.996633649E-1
8.250921920E-1,4.220977783E0,8.724471092E0,3.758896589E-1
8.276680000E-1,3.684676409E0,8.983044624E0,7.182605099E-3
8.292603840E-1,2.121262789E0,1.013465595E1,-1.915361360E-2
8.320467260E-1,-4.501099288E-1,1.133893967E1,1.987187415E-1
8.336728460E-1,-4.680664539E0,1.158314800E1,1.139639974E0
8.361152250E-1,-5.477933407E0,1.112824917E1,1.683123827E0
8.373162690E-1,-5.358223438E0,9.564835548E0,3.086126089E0
8.401846100E-1,-3.215412855E0,7.687781811E0,4.771644115E0
8.414060380E-1,-2.681505978E-1,6.251260757E0,6.505045891E0
8.442893790E-1,1.956062794E0,6.052541733E0,8.212111473E0
8.455089230E-1,1.910573006E0,7.673416615E0,1.018732834E1
8.483945720E-1,1.939303428E-1,8.710105896E0,1.048181534E1
8.496375760E-1,-1.328781962E0,9.157821655E0,1.009874249E1
8.524988790E-1,-1.304839969E0,8.889671326E0,9.160215378E0
8.544654230E-1,5.219359994E-1,8.113949776E0,7.570465565E0
8.565396480E-1,2.853888512E0,7.290344238E0,5.358223438E0
8.577818460E-1,4.053383350E0,7.165845871E0,2.834734917E0
8.606092250E-1,3.423708439E0,8.157045364E0,3.136404157E-1
8.618536150E-1,1.163581967E0,1.018732834E1,-1.558625340E0
8.647133790E-1,-1.795651317E0,1.227507210E1,-2.612074137E0
8.659283070E-1,-4.053383350E0,1.319444561E1,-3.145981073E0
8.686672690E-1,-4.537012100E0,1.261504841E1,-3.035847664E0
8.700826530E-1,-3.095702887E0,1.077151299E1,-2.315192938E0
8.729212250E-1,-7.086837292E-1,8.561665535E0,-1.046266198E0
8.746771920E-1,2.176329374E0,6.507440090E0,1.225831270E0
8.764324990E-1,2.707842112E0,6.447585106E0,2.006340981E0
8.782117300E-1,2.944868088E0,6.962338448E0,3.572149038E0
8.806690380E-1,2.236184359E0,7.613561630E0,4.865017891E0
8.823470380E-1,1.010353088E0,8.106766701E0,6.153098583E0
8.850980380E-1,-2.657563984E-1,8.432378769E0,7.603984833E0
8.864761530E-1,-1.525106430E0,8.614337921E0,9.109937668E0
8.891291530E-1,-2.901772499E0,8.655038834E0,1.031182671E1
8.906924990E-1,-4.228160381E0,8.576030731E0,1.062786102E1
8.934034560E-1,-4.960785866E0,8.640673637E0,9.890447617E0
8.947919610E-1,-4.019864559E0,9.253589630E0,7.541735172E0
8.970090760E-1,-2.097320795E0,9.586383820E0,5.650316238E0
8.987546530E-1,1.987187415E-1,9.519346237E0,3.842693806E0
9.012615380E-1,2.291250944E0,9.232041359E0,2.420537949E0
9.029323460E-1,3.634398222E0,8.959102631E0,1.486799240E0
9.053489230E-1,3.933673382E0,8.779537201E0,8.379706144E-1
9.072748070E-1,3.375824451E0,8.908824921E0,2.154781520E-1
9.094316150E-1,2.257732153E0,9.710882187E0,-3.447650373E-1
9.111945380E-1,5.458779931E-1,1.092953110E1,-7.326257229E-1
9.139545330E-1,-1.582567334E0,1.175074196E1,-9.457096457E-1
9.155930760E-1,-3.462015629E0,1.155202293E1,-8.451532125E-1
9.180299170E-1,-4.338293552E0,1.039562416E1,-5.267243832E-2
9.193006150E-1,-3.785232782E0,8.951920509E0,1.594538331E0
9.220987250E-1,-2.202665567E0,7.666234016E0,3.627215624E0
9.233283460E-1,-4.908113480E-1,6.940790653E0,5.595249176E0
9.262031480E-1,3.902548850E-1,7.180211067E0,7.613561630E0
9.274316920E-1,1.628057212E-1,8.025363922E0,9.485827446E0
9.303069170E-1,-5.937620401E-1,8.755595207E0,1.065898609E1
9.315736920E-1,-1.127668977E0,8.896853447E0,1.084333992E1
9.344106480E-1,-6.967126727E-1,8.453926086E0,1.014662647E1
9.363651150E-1,2.339135170E0,7.402871609E0,7.781155586E0
9.384593020E-1,3.529053211E0,7.129932880E0,6.689399719E0
9.397232300E-1,4.922478676E0,6.873753071E0,4.187458992E0
9.425287640E-1,4.357447147E0,7.479485989E0,1.675941229E0
9.437766530E-1,2.111685991E0,9.275136948E0,-1.029506698E-1
9.466333790E-1,-9.337386489E-1,1.155202293E1,-1.098938584E0
9.479356530E-1,-3.689464808E0,1.303642845E1,-1.728613615E0
9.505884990E-1,-5.111620426E0,1.241393566E1,-2.059013367E0
9.520070380E-1,-3.584120035E0,1.061828423E1,-1.491587639E0
9.548408790E-1,-7.733271718E-1,8.573636055E0,-4.333505034E-1
9.565213840E-1,2.003946781E0,7.060500622E0,7.422025204E-1
9.583438840E-1,3.782838583E0,6.500257492E0,1.838746905E0
9.601426530E-1,4.194641590E0,6.641515732E0,2.808398485E0
9.625970760E-1,3.438073635E0,7.149086475E0,3.852270603E0
9.643642690E-1,1.723825216E0,7.915230751E0,5.434837818E0
9.667234990E-1,-6.177040339E-1,8.640673637E0,7.376535416E0
9.683940760E-1,-3.141192675E0,9.186552048E0,9.193734169E0
9.709066530E-1,-5.319916248E0,9.435548782E0,1.039322948E1
9.725999990E-1,-6.517016888E0,9.339780807E0,1.047223854E1
9.753282250E-1,-6.239289761E0,9.117119789E0,9.497797966E0
9.770146920E-1,-4.410119534E0,8.983044624E0,7.924807549E0
9.789633070E-1,-1.503558636E0,8.944737434E0,6.117185116E0
9.807159610E-1,1.491587639E0,8.834604263E0,4.220977783E0
9.832517300E-1,3.766079187E0,8.757989883E0,2.518700123E0
9.849051150E-1,4.857835293E0,8.815450668E0,1.264138460E0
9.873163840E-1,4.618414879E0,9.026140213E0,5.722141862E-1
9.889906530E-1,3.373430252E0,9.416395187E0,1.891419291E-1
9.913430380E-1,1.613691926E0,1.002452278E1,-1.460463107E-1
9.930336150E-1,-2.585737705E-1,1.061828423E1,-6.560112834E-1
9.958766090E-1,-2.691082716E0,1.136288166E1,-1.261744261E0
9.978400380E-1,-3.782838583E0,1.142513084E1,-1.017535686E0
9.999699560E-1,-4.223371983E0,1.078108978E1,4.070143029E-2
1.001248076E0,-3.809175014E0,9.375694275E0,1.893813491E0
1.004038840E0,-2.384624958E0,7.682993412E0,4.094084740E0
1.005343384E0,-5.865794420E-1,6.323086739E0,6.251260757E0
1.008142263E0,6.512228847E-1,5.872976780E0,8.267178535E0
1.009391230E0,9.097966552E-1,6.622362137E0,1.012747288E1
1.012220763E0,2.250549644E-1,7.754819393E0,1.133415127E1
1.013441615E0,-9.361328483E-1,8.339004517E0,1.146104336E1
1.016288994E0,-1.726219416E0,8.403648376E0,1.086249352E1
1.018190884E0,-1.094150186E0,8.370129585E0,9.868899345E0
1.020330340E0,1.082179189E0,8.236053467E0,8.080430984E0
1.021563846E0,3.567360640E0,7.836222172E0,5.073313236E0
1.024399186E0,4.989516258E0,7.745242596E0,1.534683347E0
1.025849884E0,4.879383087E0,8.698134422E0,-1.319205165E0
1.028503032E0,3.373430252E0,1.057279491E1,-3.040636063E0
1.029776269E0,7.541735172E-1,1.246421432E1,-3.912125587E0
1.032508846E0,-2.300827742E0,1.335964584E1,-4.228160381E0
1.033861653E0,-4.424484730E0,1.288080502E1,-3.897760391E0
1.036710955E0,-4.527435303E0,1.131499767E1,-2.722207308E0
1.038412192E0,-1.731007814E0,8.204929352E0,1.268926859E-1
1.040225576E0,-6.153098345E-1,7.295132637E0,1.187524080E0
1.042100807E0,1.407790542E0,6.208165169E0,3.332728863E0
1.044462384E0,2.686294317E0,6.138733387E0,5.439626217E0
1.046107922E0,2.865859509E0,6.452373505E0,7.031770229E0
1.048518192E0,1.860294700E0,6.859387875E0,8.310274124E0
1.050211384E0,2.154781520E-1,7.259219646E0,9.598354340E0
1.052617730E0,-2.152387381E0,8.262390137E0,1.187763500E1
1.054429884E0,-3.701435804E0,8.892065048E0,1.288798809E1
1.057179071E0,-4.941632271E0,8.992621422E0,1.240914726E1
1.058653499E0,-5.140350819E0,8.746018410E0,1.046505547E1
1.060825115E0,-3.780444384E0,8.657433510E0,7.948749542E0
1.062429576E0,-9.648633003E-1,8.968679428E0,5.552153587E0
1.064925576E0,2.310404539E0,9.167398453E0,3.033453465E0
1.066553076E0,4.690241337E0,9.184157372E0,6.057330370E-1
1.068914153E0,5.501875401E0,9.418789864E0,-1.199495077E0
1.070650461E0,4.910507679E0,1.016099167E1,-2.054224968E0
1.073113422E0,3.440467834E0,1.093192482E1,-2.456450939E0
1.074765807E0,1.532289028E0,1.127908421E1,-2.944868088E0
1.077617532E0,-4.189853072E-1,1.155681133E1,-3.119644880E0
1.079270692E0,-2.042253971E0,1.178665543E1,-2.679111719E0
1.081686225E0,-3.141192675E0,1.172201157E1,-1.544260144E0
1.082896730E0,-3.806780815E0,1.071884060E1,-9.816227108E-2
1.085754378E0,-3.885789394E0,8.932766914E0,1.663970232E0
1.086988230E0,-2.911349297E0,7.323863029E0,3.964797974E0
1.089857994E0,-9.409212470E-1,6.440402508E0,6.607996464E0
1.091211384E0,9.121908545E-1,6.490680695E0,9.356540680E0
1.093960917E0,1.414973259E0,6.988674641E0,1.169328117E1
1.095277384E0,7.637503147E-1,7.395689011E0,1.302445698E1
1.098064148E0,-7.182605099E-3,7.788338184E0,1.332373238E1
1.099898153E0,1.675941199E-1,7.917624950E0,1.213381386E1
1.102105109E0,8.283938169E-1,7.764396191E0,1.125993061E1
1.103325345E0,2.935291290E0,7.259219646E0,8.676587105E0
1.106173532E0,5.042188644E0,7.065289021E0,5.451597214E0
1.107482269E0,5.722142220E0,7.668628216E0,2.252943754E0
1.110276301E0,4.367023945E0,9.124302864E0,-2.585737705E-1
1.111624576E0,-3.016694188E-1,1.189918232E1,-2.463633537E0
1.114321884E0,-3.663128614E0,1.290953541E1,-3.023876667E0
1.115657769E0,-5.628767967E0,1.267969227E1,-2.829946518E0
1.118483878E0,-5.128379822E0,1.123598862E1,-2.111685991E0
1.120253538E0,-2.640804529E0,9.342175484E0,-9.528923035E-1
1.122054769E0,3.088520169E-1,7.608773232E0,2.992752194E-1
1.123780576E0,2.717418909E0,6.734889507E0,1.592144132E0
1.126252961E0,4.256890774E0,6.777985096E0,2.880224705E0
1.127901115E0,4.570530891E0,7.273584843E0,4.043806553E0
1.130351345E0,3.552995205E0,7.970297337E0,5.346252441E0
1.132450499E0,1.786074519E0,8.607154846E0,6.677428722E0
1.134832653E0,-1.316810995E-1,9.263166428E0,8.058882713E0
1.136158230E0,-2.123656988E0,9.706093788E0,9.119514465E0
1.138960263E0,-3.888183594E0,9.600749016E0,9.121908188E0
1.140446999E0,-4.836287498E0,9.210494041E0,8.049305916E0
1.142775692E0,-4.522646904E0,9.169792175E0,6.679822922E0
1.144381269E0,-2.777273893E0,9.651026726E0,5.451597214E0
1.146838538E0,-3.567360640E-1,1.001494598E1,4.165910721E0
1.148503884E0,1.637633920E0,9.751583099E0,2.901772499E0
1.150989845E0,2.930502892E0,9.165003777E0,2.157175779E0
1.152558653E0,3.818751812E0,8.722076416E0,2.200271368E0
1.155255269E0,4.304774761E0,8.588001251E0,2.580949545E0
1.156758769E0,3.766079187E0,8.777143478E0,2.803610086E0
1.159501340E0,8.762778044E-1,9.710882187E0,2.913743496E0
1.161199345E0,-1.395819545E0,1.018972206E1,3.016694069E0
1.163576532E0,-3.224989653E0,9.801861763E0,3.203441858E0
1.164971307E0,-3.928884983E0,8.798690796E0,3.667917013E0
1.167644993E0,-3.172317266E0,7.838616371E0,4.481945515E0
1.168924076E0,-1.484405041E0,7.553706169E0,5.635950565E0
1.171748570E0,-5.267243832E-2,7.764396191E0,6.792350292E0
1.173022576E0,4.070142806E-1,8.090007782E0,7.675810814E0
1.175851686E0,3.208230138E-1,8.518569946E0,8.214506149E0
1.177138615E0,3.351882398E-1,9.057265282E0,8.307879448E0
1.179953878E0,8.379706144E-1,9.375694275E0,7.687781811E0
1.181877076E0,2.820369720E0,8.590395927E0,4.867412090E0
1.184001032E0,3.682282209E0,8.226476669E0,3.727771997E0
1.185227730E0,4.975151062E0,7.785943985E0,1.716642618E0
1.188068955E0,4.742913723E0,8.145073891E0,4.955997467E-1
1.189309538E0,2.631227732E0,9.325415611E0,1.316810995E-1
1.192171724E0,-6.033388376E-1,1.066137981E1,7.900865376E-2
1.193446999E0,-3.569754839E0,1.149456215E1,2.082955539E-1
1.196097807E0,-5.001487255E0,1.123359394E1,5.339069963E-1
1.197593576E0,-4.206612587E0,1.010592556E1,1.252167463E0
1.200377109E0,-1.731007814E0,8.645462036E0,2.334346771E0
1.202120461E0,2.315192938E0,6.809109688E0,3.813963413E0
1.203865692E0,3.313575268E0,6.524199486E0,4.163516521E0
1.205687268E0,4.546588898E0,6.428431511E0,4.613626480E0
1.208152653E0,4.639962673E0,6.883329868E0,4.965574265E0
1.209787422E0,3.720589399E0,7.654263020E0,5.446808815E0
1.212358499E0,2.257732153E0,8.662221909E0,6.069301128E0
1.213866230E0,-6.368576288E-1,1.006282997E1,6.727706909E0
1.216245230E0,-2.868253708E0,1.043153667E1,6.426037312E0
1.218102730E0,-4.505887508E0,1.034774017E1,5.324704647E0
1.220841762E0,-4.922478676E0,1.034055710E1,4.103661537E0
1.222209499E0,-4.010287762E0,1.052251625E1,3.227383852E0
1.224777384E0,-2.109291792E0,1.055842972E1,2.571372509E0
1.226293961E0,-4.548983276E-2,1.017775154E1,2.035071373E0
1.228774115E0,1.525106430E0,9.500192642E0,1.845929503E0
1.230334345E0,2.573766708E0,8.820239067E0,2.233790159E0
1.232744268E0,3.394978046E0,8.434772491E0,3.117250681E0
1.234420576E0,3.610456228E0,8.449137688E0,4.240131378E0
1.236907692E0,2.762908697E0,8.595184326E0,5.061342239E0
1.238707768E0,1.082179189E0,8.827422142E0,5.468356609E0
1.241387109E0,-7.278373241E-1,8.877699852E0,5.509057999E0
1.243199845E0,-2.444479942E0,8.410830498E0,5.360617638E0
1.245468685E0,-2.559401512E0,8.228871346E0,5.394136429E0
1.246675345E0,-1.996764183E0,8.008605003E0,5.580883980E0
1.249536878E0,-9.313444495E-1,8.224082947E0,6.114790916E0
1.250821653E0,-1.819593310E-1,8.458714485E0,6.641515732E0
1.253639647E0,-7.182605099E-3,8.729259491E0,6.964732647E0
1.254933845E0,6.224924326E-2,9.284713745E0,7.117961884E0
1.257742378E0,5.051765442E-1,9.667786598E0,6.454767704E0
1.259073692E0,1.347935557E0,9.507374763E0,4.960785866E0
1.261845724E0,3.409343243E0,8.501810074E0,2.135627985E0
1.263717115E0,4.568136692E0,8.209717751E0,7.685387731E-1
1.265885647E0,4.125209332E0,8.655038834E0,1.675941199E-1
1.267088038E0,1.838746905E0,9.545681953E0,4.788403399E-3
1.269953878E0,-1.395819545E0,1.036928749E1,1.077390760E-1
1.271280307E0,-4.050989151E0,1.059434223E1,5.961562395E-1
1.274056378E0,-4.932055473E0,9.945513725E0,1.367089152E0
1.275503038E0,-3.871424198E0,8.805873871E0,2.401384354E0
1.278015884E0,-1.680729628E0,7.833827972E0,3.490746021E0
1.279396884E0,5.578489900E-1,7.271190643E0,4.225766182E0
1.282263416E0,2.013523579E0,7.182605267E0,4.666299343E0
1.283917730E0,2.604891539E0,7.273584843E0,4.932055473E0
1.285763192E0,2.686294317E0,7.544129372E0,5.406107426E0
1.287599115E0,2.645592928E0,8.070854187E0,6.246472359E0
1.290108115E0,2.418143749E0,8.667010307E0,6.991068840E0
1.291681999E0,1.671152830E0,9.179368973E0,7.120356083E0
1.294153730E0,3.375824392E-1,9.382876396E0,6.260837555E0
1.295782268E0,-1.216254473E0,9.402029991E0,4.762067318E0
1.298153999E0,-2.446874142E0,9.792284966E0,3.632004023E0
1.299920538E0,-2.844311714E0,1.063264942E1,3.165134668E0
1.302750339E0,-2.446874142E0,1.128387260E1,2.791639090E0
1.304337961E0,-1.829170108E0,1.103726959E1,2.169146776E0
1.306336384E0,-1.043871999E0,1.014423275E1,1.860294700E0
1.308124615E0,3.998316824E-1,9.193734169E0,2.360682964E0
1.310498191E0,2.214636564E0,8.465897560E0,3.438073635E0
1.312255191E0,3.311181068E0,7.831433773E0,4.424484730E0
1.314505191E0,3.174711466E0,7.721300602E0,5.243301868E0
1.316242191E0,2.401384354E0,8.094796181E0,5.681440830E0
1.318702422E0,8.092401624E-1,8.516175270E0,5.485116005E0
1.320394768E0,-3.256114423E-1,8.432378769E0,5.341464043E0
1.323191224E0,-7.278373241E-1,8.413225174E0,5.456385612E0
1.324983499E0,-3.687070608E-1,8.643068314E0,5.791574001E0
1.327268762E0,-1.556231081E-1,8.777143478E0,5.980715752E0
1.328496230E0,-3.974374831E-1,8.913613319E0,6.030993938E0
1.331336377E0,-4.764461517E-1,9.368511200E0,6.021417141E0
1.332617691E0,-5.027823523E-2,9.892841339E0,5.693411827E0
1.335439031E0,7.110779285E-1,1.001733971E1,4.867412090E0
1.336715691E0,1.819593310E0,9.507374763E0,3.591302633E0
1.339541570E0,3.275267839E0,8.793902397E0,2.327163935E0
1.340947999E0,4.194641590E0,8.518569946E0,1.654393315E0
1.343644954E0,3.598485231E0,8.662221909E0,1.553836942E0
1.345818268E0,3.016694188E-1,9.301473618E0,1.977610588E0
1.347685608E0,-9.576807022E-1,9.512163162E0,2.293645144E0
1.348902384E0,-2.916137695E0,9.612719536E0,3.100491285E0
1.351754570E0,-3.459621429E0,9.150638580E0,3.897760391E0
1.353037961E0,-2.370259762E0,8.334216118E0,4.412513733E0
1.355858262E0,-2.849099934E-1,7.618350029E0,4.472368717E0
1.357112845E0,1.711854219E0,7.477091789E0,4.280832767E0
1.359815730E0,2.896984100E0,7.771578789E0,3.955221176E0
1.361278461E0,3.275267839E0,8.070854187E0,3.536235809E0
1.364064723E0,3.131615877E0,8.470685959E0,3.509899616E0
1.365830615E0,2.477998734E0,9.442731857E0,4.206612587E0
1.367579730E0,2.133233786E0,9.849745750E0,4.410119534E0
1.369426922E0,1.084573388E0,1.044111347E1,4.302380562E0
1.371873961E0,-3.351882398E-1,1.057040024E1,3.488351822E0
1.373727653E0,-1.965639591E0,1.061589050E1,2.346317768E0
1.375939345E0,-2.075772762E0,1.072602367E1,2.061407566E0
1.377578422E0,-1.565807939E0,1.075475407E1,1.999158382E0
1.379959538E0,-9.097966552E-1,1.051533413E1,2.039859772E0
1.381735384E0,-2.274491638E-1,1.010592556E1,2.413355350E0
1.384543993E0,5.267243981E-1,9.536105156E0,3.263296843E0
1.385998153E0,1.312022567E0,8.614337921E0,4.209006786E0
1.388250768E0,1.821987510E0,7.912836552E0,5.329493046E0
1.390313191E0,1.821987510E0,7.831433773E0,6.564900875E0
1.392503076E0,1.467645645E0,8.082824707E0,7.285555840E0
1.394308268E0,8.188169599E-1,7.941566944E0,6.940790653E0
1.396426115E0,-6.943184882E-2,7.592013359E0,6.191405773E0
1.398212807E0,-7.086837292E-1,7.754819393E0,5.875370979E0
1.400520076E0,-6.847416759E-1,8.382100105E0,5.803544998E0
1.402278115E0,-4.668693244E-1,9.021351814E0,5.568912983E0
1.405084493E0,-7.038952708E-1,9.332598686E0,5.193023682E0
1.406806538E0,-8.954314590E-1,9.782708168E0,4.965574265E0
1.409160300E0,-6.943184733E-1,1.005804157E1,4.977545261E0
1.410380307E0,-9.576806426E-2,1.047223854E1,4.723760128E0
1.413229185E0,6.200982332E-1,1.024239445E1,3.636792421E0
1.414499730E0,1.695094824E0,9.631873131E0,2.085349798E0
1.417333262E0,3.145981073E0,9.380482674E0,1.098938584E0
1.418628691E0,4.185064793E0,9.239224434E0,4.764461517E-1
1.421437069E0,2.997540474E0,9.253589630E0,3.782838583E-1
1.422730345E0,8.403648138E-1,9.555258751E0,8.834604025E-1
1.425540723E0,-1.355118155E0,9.952696800E0,1.910573006E0
1.427440999E0,-2.851494312E0,9.643844604E0,2.911349297E0
1.429587031E0,-3.100491285E0,8.485051155E0,3.507505417E0
1.431389653E0,-2.037465572E0,7.405265808E0,4.017470360E0
1.433655416E0,-2.394201756E-1,7.034164429E0,4.402936935E0
1.434874691E0,1.290474772E0,7.412448406E0,4.501099110E0
1.437758723E0,1.920149803E0,7.929595947E0,4.108449936E0
1.439041691E0,1.807622313E0,8.355764389E0,3.658340216E0
1.441760191E0,1.616086125E0,8.808267593E0,3.785232782E0
1.443109461E0,1.541865945E0,9.311050415E0,4.484339714E0
1.445963415E0,1.151610970E0,9.825803757E0,5.178658485E0
1.447623884E0,1.460463107E-1,1.008677197E1,4.989516258E0
1.449458153E0,-1.211466074E0,1.019690514E1,3.952826977E0
1.451263922E0,-2.334346771E0,1.052491093E1,2.987963676E0
1.453758730E0,-2.705447912E0,1.095826149E1,2.506729126E0
1.455411922E0,-2.269703150E0,1.118092155E1,2.331952572E0
1.457868538E0,-1.429338455E0,1.089840603E1,2.221819162E0
1.459452345E0,-4.213795066E-1,1.018732834E1,2.190694571E0
1.461834230E0,7.733271718E-1,9.497797966E0,2.580949545E0
1.463590538E0,1.900996208E0,8.765172005E0,3.198653460E0
1.466430031E0,2.432508945E0,8.271966934E0,3.943250179E0
1.467811961E0,2.061407566E0,8.327033043E0,4.762067318E0
1.470116076E0,1.074996591E0,8.918401718E0,5.439626217E0
1.471867345E0,-7.661445439E-2,9.342175484E0,5.439626217E0
1.474477807E0,-1.362300754E0,8.863334656E0,4.458003521E0
1.475990153E0,-1.177947283E0,8.518569946E0,4.156333923E0
1.478532076E0,-2.705447972E-1,8.327033043E0,4.161122322E0
1.480120499E0,3.375824392E-1,8.406042099E0,4.441244125E0
1.482475961E0,-9.097966552E-2,8.822632790E0,4.991910458E0
1.484191191E0,-1.163581967E0,9.617507935E0,5.549759388E0
1.486974915E0,-2.257732153E0,1.062307262E1,5.961562157E0
1.488746691E0,-2.741360903E0,1.110430717E1,5.822698593E0
1.491055685E0,-2.059013367E0,1.073081207E1,5.090072632E0
1.492263230E0,-4.309562966E-2,9.643844604E0,4.106055737E0
1.495123108E0,2.712630510E0,8.508993149E0,3.222595453E0
1.496389691E0,4.790797710E0,7.876923561E0,2.592920542E0
1.499224800E0,5.039794445E0,7.817068577E0,2.097320795E0
1.500530730E0,3.473986626E0,8.425195694E0,1.977610588E0
1.503326800E0,1.074996591E0,9.433155060E0,2.473210335E0
1.504619807E0,-1.089361787E0,9.938331604E0,3.131615877E0
1.507429108E0,-2.331952572E0,9.162610054E0,3.323152065E0
1.509310230E0,-1.836352706E0,7.596801758E0,3.368641853E0
1.511468723E0,-1.154005170E0,7.493851185E0,3.435679436E0
1.512881230E0,2.753331959E-1,7.965508938E0,3.409343243E0
1.515536377E0,1.000776291E0,8.621520042E0,2.906560898E0
1.516769884E0,1.094150186E0,8.829815865E0,2.126051188E0
1.519638377E0,1.398213744E0,9.030928612E0,2.049436569E0
1.520946422E0,2.121262789E0,9.447520256E0,2.820369720E0
1.523612884E0,2.509123325E0,9.854534149E0,3.545812607E0
1.525012576E0,1.867477298E0,1.001494598E1,3.505111217E0
1.527843838E0,-4.740519226E-1,1.036928749E1,2.513911724E0
1.529579268E0,-2.032677174E0,1.086009884E1,2.142810583E0
1.531345537E0,-3.081337690E0,1.093671322E1,1.886630893E0
1.533163230E0,-3.344699860E0,1.062307262E1,1.786074519E0
1.535608422E0,-2.729389906E0,1.011310768E1,1.802833915E0
1.537265268E0,-1.661576033E0,9.445125580E0,1.908178806E0
1.539714807E0,-9.289502501E-1,8.956708908E0,2.564189911E0
1.541356768E0,-3.064578176E-1,8.221688271E0,3.143586874E0
1.543992768E0,2.394201607E-2,8.128314972E0,3.938461781E0
1.545502807E0,-3.232172430E-1,8.719682693E0,5.224148273E0
1.548321569E0,-1.017535686E0,8.731653214E0,5.432443619E0
1.549820653E0,-1.534683347E0,8.528146744E0,5.329493046E0
1.551893268E0,-1.663970232E0,8.310274124E0,5.420472622E0
1.553607537E0,-1.776497602E0,8.267178535E0,5.961562157E0
1.556102961E0,-2.178723574E0,8.140285492E0,6.646304131E0
1.557697653E0,-2.662352324E0,8.010998726E0,7.165845871E0
1.560118230E0,-2.987963676E0,8.607154846E0,8.037335396E0
1.561917730E0,-2.896984100E0,9.674968719E0,8.853757858E0
1.564235499E0,-2.231395960E0,1.045547867E1,8.743624687E0
1.565927614E0,-1.024718285E0,1.054166985E1,7.541735172E0
1.568757992E0,6.847416759E-1,1.017535686E1,5.932831764E0
1.570407614E0,3.778050184E0,9.368511200E0,3.804386616E0
1.572825684E0,4.537012100E0,9.050082207E0,3.122039080E0
1.574030576E0,4.958391666E0,8.571242332E0,1.764526606E0
1.576893453E0,3.778050184E0,8.865729332E0,7.661445141E-1
1.578177307E0,1.414973259E0,9.916783333E0,2.202665508E-1
1.580996223E0,-1.596932530E0,1.100853920E1,8.619125932E-2
1.582236384E0,-5.360617638E0,1.133175659E1,6.991068721E-1
1.585099800E0,-5.726930618E0,1.072602367E1,1.513135433E0
1.586375884E0,-4.345476151E0,9.703699112E0,2.171540976E0
1.589203146E0,-2.315192938E0,8.554482460E0,2.418143749E0
1.591384845E0,-3.711012602E-1,7.836222172E0,2.540247917E0
1.593243723E0,1.122880578E0,7.829039574E0,2.923320293E0
1.594463114E0,1.707065821E0,8.233659744E0,3.794809580E0
1.597312146E0,1.046266198E0,8.645462036E0,5.046977043E0
1.598702499E0,-4.525041282E-1,9.045293808E0,6.478709698E0
1.601415761E0,-2.130839586E0,9.660603523E0,7.943961143E0
1.602744114E0,-3.545812607E0,1.017775154E1,8.966285706E0
1.605471114E0,-4.367023945E0,1.026633644E1,9.119514465E0
1.606819576E0,-4.156333923E0,9.909601212E0,8.303091049E0
1.609623607E0,-2.760514498E0,9.327810287E0,6.694188118E0
1.611355807E0,-5.243301988E-1,8.959102631E0,4.800374508E0
1.613115768E0,1.819593310E0,8.832210541E0,2.803610086E0
1.614967422E0,3.409343243E0,8.779537201E0,9.409212470E-1
1.617391768E0,3.751713991E0,8.772355080E0,-4.381389022E-1
1.619038999E0,2.758120298E0,9.064447403E0,-8.307880163E-1
1.621522614E0,6.129156351E-1,9.622296333E0,-3.471592367E-1
1.623500191E0,-2.025494576E0,1.007240677E1,2.801215947E-1
1.625568768E0,-4.501099110E0,1.048660374E1,8.954314590E-1
1.627613422E0,-6.497863293E0,1.064222622E1,1.606509328E0
1.630084222E0,-7.735665798E0,1.040520096E1,2.794033289E0
1.631743191E0,-7.208941460E0,8.681375504E0,5.238513470E0
1.633846153E0,-6.397306919E0,7.773972988E0,6.143521786E0
1.635604960E0,-2.999934673E0,5.116408825E0,9.153033257E0
1.638165499E0,-6.607996821E-1,4.134786129E0,1.109951878E1
1.639570037E0,6.153098345E-1,4.872200489E0,1.318247414E1
1.642088384E0,4.285621047E-1,6.174646378E0,1.463575459E1
1.643732537E0,-6.967126727E-1,6.579266071E0,1.393664837E1
1.646178230E0,-1.855506301E0,7.503427982E0,1.335006905E1
1.648020345E0,-1.702277422E0,8.281543732E0,1.224155331E1
1.650622722E0,-4.548983276E-2,8.487444878E0,9.837775230E0
1.652313730E0,2.224213362E0,8.403648376E0,6.584054470E0
1.654697722E0,4.307168961E0,8.339004517E0,2.557007313E0
1.655950807E0,5.465962410E0,9.052476883E0,-9.481038451E-1
1.658766338E0,4.975151062E0,1.023042393E1,-3.442862034E0
1.660040922E0,3.023876667E0,1.102290440E1,-5.293580055E0
1.662869568E0,2.250549644E-1,1.151371574E1,-6.011840343E0
1.664250191E0,-2.281674147E0,1.165497398E1,-5.626373768E0
1.666972530E0,-3.670311213E0,1.123120022E1,-4.515464306E0
1.668246614E0,-3.866635799E0,1.033337498E1,-2.825158119E0
1.671075799E0,-3.107673883E0,9.172186852E0,-9.648633003E-1
1.673159153E0,-4.285621047E-1,7.819462776E0,2.109291792E0
1.675122645E0,7.733271718E-1,7.455543995E0,3.145981073E0
1.676352576E0,3.134010077E0,6.521805286E0,4.927267075E0
1.679191299E0,4.979939461E0,5.552153587E0,6.347028732E0
1.680506576E0,5.758055210E0,5.260061264E0,7.910442352E0
1.683251338E0,5.228936672E0,5.834669590E0,9.500192642E0
1.684474653E0,3.325546265E0,6.888118267E0,1.041956615E1
1.687090037E0,4.955997467E-1,8.001421928E0,1.027830791E1
1.688476153E0,-2.106897593E0,8.947132111E0,9.112331390E0
1.691342684E0,-3.224989653E0,9.725247383E0,7.304709435E0
1.693030268E0,-1.414973259E0,9.926360130E0,3.612850428E0
1.694916460E0,-2.825157940E-1,9.619902611E0,2.104503393E0
1.696704537E0,2.870647907E0,8.520963669E0,-2.272097349E0
1.699358076E0,4.039018154E0,8.623914719E0,-4.288015366E0
1.700847807E0,3.964797974E0,9.440337181E0,-5.434837818E0
1.703595460E0,2.669534922E0,1.038604736E1,-6.074089527E0
1.704971460E0,6.943184733E-1,1.093671322E1,-6.385335922E0
1.707424807E0,-1.154005170E0,1.138442898E1,-5.920860767E0
1.709131884E0,-2.576161146E0,1.155441761E1,-4.508281708E0
1.711838953E0,-3.593696833E0,1.097741508E1,-2.571372509E0
1.713259268E0,-4.185064793E0,9.734824181E0,-3.711012602E-1
1.715408807E0,-4.113238335E0,8.159439087E0,1.817199111E0
1.717063114E0,-3.112462282E0,7.165845871E0,4.525041103E0
1.719522691E0,-1.412579060E0,6.725312710E0,7.388506413E0
1.721262691E0,8.858546615E-2,6.136339188E0,9.588777542E0
1.723569807E0,9.624691010E-1,5.829881191E0,1.130542088E1
1.725278422E0,1.271321058E0,6.289567947E0,1.280897903E1
1.727738653E0,1.084573388E0,7.012616634E0,1.357991219E1
1.729382922E0,5.410895944E-1,7.503427982E0,1.323035812E1
1.732252568E0,2.418143749E-1,7.580042362E0,1.163582039E1
1.733996691E0,1.441309452E0,8.092401505E0,7.838616371E0
1.736336568E0,2.106897593E0,8.389283180E0,6.229712963E0
1.737629922E0,3.069366693E0,8.882488251E0,2.458845139E0
1.740404837E0,2.987963676E0,9.615114212E0,-1.197100878E0
1.741615537E0,1.821987510E0,1.078348446E1,-3.933673382E0
1.744509222E0,-2.202665508E-1,1.207874775E1,-5.389348030E0
1.745725230E0,-2.765302896E0,1.273236465E1,-5.781997204E0
1.748612337E0,-5.001487255E0,1.216733265E1,-5.492298603E0
1.749877383E0,-5.583278179E0,1.039801788E1,-3.363853455E0
1.752715876E0,-4.237737179E0,9.466673851E0,-1.070208192E0
1.754578345E0,-2.530671120E0,8.580819130E0,1.209071875E0
1.756759876E0,-8.188169599E-1,7.908048153E0,3.390189648E0
1.757931307E0,7.565677166E-1,7.431602001E0,5.719748020E0
1.760828876E0,2.092532396E0,7.125144482E0,8.142680168E0
1.762049230E0,3.011905670E0,6.782773495E0,1.029746151E1
1.764932607E0,3.265691042E0,6.335057735E0,1.167891598E1
1.766157268E0,2.703053713E0,6.445190907E0,1.262941360E1
1.768901076E0,1.359906554E0,7.302315235E0,1.306276417E1
1.770348307E0,-5.027823448E-1,8.413225174E0,1.250012684E1
1.773139953E0,-2.425326347E0,9.318233490E0,1.084094524E1
1.774814037E0,-3.632004023E0,9.804255486E0,8.398859978E0
1.776658922E0,-3.404554844E0,1.007240677E1,5.834669590E0
1.778548037E0,-1.991975784E0,1.020648193E1,3.502717018E0
1.780923460E0,-3.495534360E-1,1.001015759E1,1.355118155E0
1.782552114E0,6.584054828E-1,9.643844604E0,-4.309563041E-1
1.784992153E0,7.972691655E-1,9.512163162E0,-1.510741234E0
1.786655730E0,2.489969730E-1,9.849745750E0,-1.757344007E0
1.789091383E0,-6.057330370E-1,1.059913063E1,-1.242590666E0
1.790773960E0,-1.568202138E0,1.100135708E1,-3.687070608E-1
1.793625645E0,-2.382230759E0,1.060391903E1,7.613561153E-1
1.795078576E0,-2.530671120E0,9.095572472E0,3.409343243E0
1.797194230E0,-2.224213362E0,8.362946510E0,4.362235546E0
1.798903691E0,-1.189918280E0,6.847416878E0,6.198588371E0
1.801399383E0,1.244984865E-1,5.671864033E0,7.903259754E0
1.802974960E0,1.400607944E0,5.154716492E0,9.481039047E0
1.805405653E0,2.217030764E0,6.133944988E0,1.177707863E1
1.807083191E0,1.398213744E0,6.883329868E0,1.252885723E1
1.809554268E0,8.379705995E-2,7.302315235E0,1.238999367E1
1.811204576E0,-7.398083210E-1,7.711723804E0,1.179862595E1
1.814061376E0,-6.775590777E-1,7.912836552E0,1.067335129E1
1.815665153E0,-7.182605099E-3,7.850587368E0,8.911218643E0
1.818138914E0,6.464344859E-1,7.668628216E0,6.725312710E0
1.819543230E0,7.996633649E-1,7.728483200E0,4.647145271E0
1.822206145E0,7.182604820E-2,8.334216118E0,3.306392431E0
1.823454614E0,-1.462857246E0,8.971074104E0,2.590526342E0
1.826308068E0,-3.157952070E0,9.265560150E0,2.296039343E0
1.827539653E0,-4.132391930E0,9.162610054E0,2.595314741E0
1.830410299E0,-3.660734415E0,8.590395927E0,3.351882458E0
1.831693307E0,-1.716642618E0,7.659051418E0,4.185064793E0
1.834512414E0,9.409212470E-1,6.732495308E0,4.766855717E0
1.836295806E0,4.326322556E0,6.715735912E0,5.137956619E0
1.838550029E0,4.996698856E0,6.931213856E0,5.008669853E0
1.839767230E0,5.492298603E0,7.244854450E0,4.345476151E0
1.842618260E0,5.137956619E0,7.601590633E0,4.053383350E0
1.844037230E0,4.175487995E0,8.152256966E0,4.704606533E0
1.846722222E0,2.686294317E0,8.872911453E0,5.940014362E0
1.848135691E0,8.236053586E-1,9.385271072E0,6.531382084E0
1.850688806E0,-1.043871999E0,9.607931137E0,5.956773758E0
1.852100614E0,-2.047042370E0,9.852140427E0,4.718971729E0
1.854928260E0,-1.584961534E0,1.009395409E1,3.349488258E0
1.856747806E0,9.050082564E-1,1.006282997E1,1.819593310E0
1.858470230E0,1.750161409E0,9.883264542E0,1.472434044E0
1.860232730E0,2.901772499E0,9.349357605E0,9.888052940E-1
1.862679230E0,2.736572504E0,8.532935143E0,9.816226959E-1
1.864405230E0,1.508347034E0,8.197746277E0,1.671152830E0
1.866838306E0,-1.029506698E-1,8.123526573E0,2.990357876E0
1.868453499E0,-1.671152830E0,8.135497093E0,4.515464306E0
1.870839037E0,-3.143586874E0,8.214506149E0,6.045359135E0
1.872780806E0,-4.560954094E0,8.075642586E0,7.374141216E0
1.875401952E0,-5.616796970E0,7.769184589E0,8.734047890E0
1.876744960E0,-5.832275391E0,7.079654217E0,1.023760605E1
1.879080345E0,-4.865017891E0,5.825092793E0,1.170285797E1
1.880817960E0,-2.834734917E0,4.479551315E0,1.307234097E1
1.883241114E0,-4.716577232E-1,3.567360640E0,1.397016716E1
1.884862960E0,1.225831270E0,3.596091032E0,1.411860752E1
1.887242730E0,1.479616642E0,4.879383087E0,1.373074722E1
1.888978153E0,3.639186621E-1,6.749254704E0,1.286404610E1
1.891515460E0,-1.053448796E0,8.362946510E0,1.143231297E1
1.893145230E0,-1.738190413E0,9.133879662E0,9.473855972E0
1.895936837E0,-1.132457376E0,9.143456459E0,7.117961884E0
1.897681191E0,1.742978811E0,9.169792175E0,3.349488258E0
1.900009760E0,2.691082716E0,9.291896820E0,2.063801765E0
1.901343806E0,3.622427225E0,9.722852707E0,-3.950432837E-1
1.904077144E0,2.791639090E0,1.055124664E1,-2.291250944E0
1.905346460E0,5.339069963E-1,1.179144382E1,-2.923320293E0
1.908179491E0,-2.097320795E0,1.277306652E1,-2.312798738E0
1.909606653E0,-3.732560396E0,1.234689808E1,-1.163581967E0
1.912282606E0,-2.497152328E0,9.263166428E0,7.182605267E-1
1.913545922E0,2.466027737E-1,6.955155849E0,1.723825216E0
1.916386183E0,3.059789658E0,6.301538944E0,3.514688015E0
1.918236230E0,5.250484467E0,6.064512730E0,4.556165695E0
1.920434183E0,5.437232018E0,6.105214119E0,5.070919037E0
1.921668768E0,3.859453201E0,6.806715488E0,6.397306919E0
1.924501914E0,2.049436569E0,7.383718014E0,7.388506413E0
1.925810191E0,4.285621047E-1,8.355764389E0,8.860940933E0
1.928604760E0,-7.230489254E-1,9.172186852E0,1.033337498E1
1.929867383E0,-1.209071875E0,8.681375504E0,9.955090523E0
1.932544845E0,-1.407790542E0,8.374917984E0,9.248801231E0
1.933968191E0,-1.309628367E0,8.580819130E0,8.358158112E0
1.936810183E0,-9.217676520E-1,9.085995674E0,7.268796444E0
1.938474614E0,-3.375824392E-1,9.560047150E0,6.224924564E0
1.940322076E0,1.819593310E-1,9.787496567E0,5.334281445E0
1.942118806E0,6.655880809E-1,9.775525093E0,4.884171486E0
1.944567268E0,1.146822572E0,9.255983353E0,4.323928356E0
1.946257537E0,1.458068848E0,8.631096840E0,3.859453201E0
1.949077414E0,1.453280449E0,8.365341187E0,3.646369219E0
1.950337999E0,1.331176162E0,8.973467827E0,3.655946016E0
1.952722691E0,9.648633003E-1,1.012029076E1,3.387795448E0
1.954480460E0,1.005564705E-1,1.069729328E1,2.305616140E0
1.957284529E0,-8.786720037E-1,1.074278259E1,1.453280449E0
1.958636576E0,-5.123591423E-1,1.005804157E1,1.714248419E0
1.960972729E0,1.651999205E-1,9.744400978E0,2.099714994E0
1.962781691E0,1.853112102E0,8.504204750E0,2.736572504E0
1.965276460E0,1.877054095E0,8.073247910E0,2.700659513E0
1.966786614E0,1.161187768E0,9.081207275E0,3.450044632E0
1.969130268E0,-1.436520964E-1,1.066137981E1,4.769249916E0
1.970880883E0,-1.651999116E0,1.143949604E1,5.530605793E0
1.973368114E0,-2.475604534E0,1.131978607E1,5.521028996E0
1.974998845E0,-1.580173135E0,1.093671322E1,5.140350819E0
1.977832029E0,9.744400978E-1,1.051054573E1,4.599261284E0
1.979656960E0,3.658340216E0,9.591172218E0,3.823540211E0
1.981923683E0,5.166687489E0,8.530540466E0,3.248931646E0
1.983276768E0,5.176264286E0,8.087613106E0,3.184288263E0
1.985992336E0,3.572149038E0,8.559270859E0,3.603273630E0
1.987410037E0,3.902548850E-1,9.392453194E0,4.134786129E0
1.990095529E0,-3.318363667E0,9.842563629E0,4.510675907E0
1.991343960E0,-5.822698593E0,9.842563629E0,5.169081688E0
1.994198836E0,-6.136339188E0,9.057265282E0,5.863399982E0
1.995512460E0,-4.778826714E0,7.639897823E0,6.332663536E0
1.998302106E0,-2.408566952E0,6.294356346E0,6.490680695E0
2.000100883E0,1.965639591E0,5.655104637E0,5.492298603E0
2.002340336E0,3.100491285E0,5.832275391E0,4.905719280E0
2.003551614E0,4.240131378E0,6.584054470E0,3.509899616E0
2.006408990E0,3.921702385E0,7.905653954E0,2.571372509E0
2.007692229E0,2.681505919E0,9.318233490E0,2.236184359E0
2.010512221E0,8.786720037E-1,1.060391903E1,2.413355350E0
2.011757768E0,-1.244984865E0,1.136048698E1,2.291250944E0
2.014542037E0,-2.918531895E0,1.185608673E1,1.865083098E0
2.015918960E0,-3.095702887E0,1.179383755E1,1.556231081E-1
2.018717952E0,-1.678335428E0,1.158793640E1,-4.501099288E-1
2.020404422E0,3.399766386E-1,1.099656868E1,-7.445967197E-1
2.022226537E0,1.896207690E0,1.023760605E1,-8.116343617E-1
2.024037076E0,2.446874142E0,9.900024414E0,-2.011129409E-1
2.026492114E0,2.375048161E0,9.962273598E0,7.876923680E-1
2.028121076E0,1.752555609E0,9.993397713E0,2.049436569E0
2.030708345E0,5.722141862E-1,1.000058079E1,3.892971992E0
2.032230960E0,-3.806780577E-1,9.744400978E0,5.815515995E0
2.034770306E0,-8.978256583E-1,9.832986832E0,7.829039574E0
2.036335037E0,-2.011129409E-1,9.521739960E0,9.483432770E0
2.039116259E0,4.429273009E-1,7.383718014E0,8.259995461E0
2.040535922E0,5.027823448E-1,6.579266071E0,8.434772491E0
2.042698768E0,1.185129881E0,6.279991150E0,7.989450932E0
2.044599422E0,1.256955862E0,6.311115742E0,6.727706909E0
2.046852037E0,-4.716577232E-1,7.821856976E0,6.950367451E0
2.048554768E0,-2.394201756E0,9.076418877E0,6.464344501E0
2.050855306E0,-4.326322556E0,1.018493366E1,5.961562157E0
2.052646922E0,-5.877765179E0,1.118570995E1,6.179434776E0
2.055072806E0,-5.597643375E0,1.108515358E1,5.341464043E0
2.056806037E0,-3.311181068E0,1.061828423E1,4.084507942E0
2.059548144E0,-2.968810201E-1,9.370905876E0,2.092532396E0
2.061218268E0,3.095702887E0,8.276755333E0,2.370259613E-1
2.063615798E0,3.948038578E0,8.312667847E0,-1.197100803E-2
2.064833729E0,4.484339714E0,8.614337921E0,-4.046200812E-1
2.067683990E0,2.789244890E0,9.162610054E0,-4.788403213E-2
2.068940691E0,-4.189853072E-1,9.734824181E0,8.690952063E-1
2.071786952E0,-3.232172251E0,1.026154804E1,2.236184359E0
2.073257806E0,-5.023035049E0,9.971850395E0,3.600879431E0
2.075889990E0,-5.324704647E0,7.343016624E0,4.821922302E0
2.077135614E0,-3.591302633E0,5.762843609E0,5.363011837E0
2.079992452E0,-1.089361787E0,5.616796970E0,6.191405773E0
2.081866999E0,8.236053586E-1,6.021417141E0,6.445190907E0
2.084031298E0,1.479616642E0,6.162675381E0,5.798756599E0
2.085250499E0,1.431732655E0,6.749254704E0,5.384559631E0
2.088099221E0,1.165976286E0,7.905653954E0,5.676652431E0
2.089588768E0,6.320692301E-1,8.844181061E0,5.971138954E0
2.092201067E0,2.394201700E-3,9.246406555E0,5.458779812E0
2.093487768E0,-3.734954596E-1,9.753977776E0,4.290409565E0
2.096188499E0,-5.267243981E-1,1.062307262E1,2.750937700E0
2.097652845E0,-7.015010715E-1,1.102529907E1,7.565677166E-1
2.100407221E0,-8.667010069E-1,1.092713642E1,-1.005564690E0
2.102234306E0,-6.200982332E-1,1.113543224E1,-1.410184860E0
2.103942768E0,1.029506698E-1,1.150892735E1,-9.481038451E-1
2.105830691E0,6.607996821E-1,1.118092155E1,-6.368576288E-1
2.108170537E0,7.996633649E-1,1.020648193E1,-4.333505034E-1
2.109799422E0,1.060631394E0,9.437943459E0,3.734954596E-1
2.112304960E0,1.525106430E0,9.296685219E0,1.896207690E0
2.114069614E0,1.580173135E0,9.437943459E0,3.440467834E0
2.116296152E0,7.589619160E-1,9.342175484E0,4.400542736E0
2.118049614E0,-4.429273009E-1,9.107542992E0,5.042188644E0
2.120864836E0,-1.417367458E0,8.614337921E0,5.626373768E0
2.122221191E0,-1.965639591E0,7.754819393E0,6.356605530E0
2.124528191E0,-2.090138197E0,6.878541470E0,7.213729858E0
2.126258960E0,-2.193088770E0,6.349422932E0,8.013393402E0
2.128955422E0,-3.323152065E0,7.072471619E0,8.949525833E0
2.130345537E0,-4.927267075E0,8.403648376E0,9.332598686E0
2.132719114E0,-6.306327343E0,9.806650162E0,9.490615845E0
2.134446422E0,-6.478709698E0,1.040998936E1,8.973467827E0
2.136908652E0,-4.896142483E0,9.919178009E0,7.702147007E0
2.138772691E0,-1.592144132E0,9.088389397E0,6.162675381E0
2.141400528E0,2.497152328E0,8.317456245E0,4.307168961E0
2.143243152E0,5.635950565E0,7.582436562E0,1.953668594E0
2.145473182E0,6.517016888E0,7.362170219E0,-1.795651317E-1
2.146759729E0,5.075707436E0,8.305485725E0,-1.053448796E0
2.149541220E0,1.891419291E0,9.974244118E0,-8.978256583E-1
2.150872768E0,-2.226607561E0,1.147062016E1,-2.968810201E-1
2.153643797E0,-5.777208805E0,1.183453941E1,2.873042040E-2
2.154960076E0,-7.443572998E0,1.096783829E1,1.699883193E-1
2.157746144E0,-6.718130112E0,9.552865028E0,8.427590132E-1
2.159295114E0,-4.122815132E0,7.867346764E0,1.623268723E0
2.161848528E0,-8.906430602E-1,6.612784863E0,2.439691544E0
2.163696575E0,2.628833532E0,6.110002518E0,3.181894064E0
2.165896567E0,3.217807055E0,6.227318764E0,3.265691042E0
2.167098922E0,3.452438831E0,6.888118267E0,3.574543238E0
2.169964605E0,2.588132143E0,7.771578789E0,4.197035789E0
2.171327768E0,1.041477680E0,8.767566681E0,5.142745018E0
2.174067413E0,-7.948749661E-1,9.641449928E0,5.868188381E0
2.175371152E0,-2.691082716E0,1.006282997E1,5.786785603E0
2.178039345E0,-4.050989151E0,1.028070164E1,4.958391666E0
2.179468229E0,-4.185064793E0,1.044111347E1,3.620033026E0
2.182271490E0,-2.207453966E0,1.042674828E1,1.328781962E0
2.184056614E0,-3.519476354E-1,1.001255131E1,8.619125932E-2
2.185794499E0,1.400607944E0,9.667786598E0,-4.979939461E-1
2.187775883E0,2.511517525E0,9.600749016E0,-3.543418646E-1
2.190020729E0,2.370259762E0,9.670180321E0,1.987187415E-1
2.191667037E0,1.271321058E0,9.643844604E0,8.858546019E-1
2.194140537E0,8.858546615E-2,9.770736694E0,1.731007814E0
2.195772691E0,-1.015141487E0,9.981427193E0,2.700659513E0
2.198143383E0,-2.173935175E0,9.852140427E0,3.452438831E0
2.199931575E0,-3.213018656E0,9.332598686E0,3.995922565E0
2.202733759E0,-3.739742994E0,8.384494781E0,4.343081951E0
2.204103575E0,-3.758896589E0,7.481880188E0,4.903325081E0
2.206484845E0,-3.552995205E0,6.801927090E0,5.609614372E0
2.208234922E0,-3.442862034E0,6.655880928E0,6.265625954E0
2.210681499E0,-3.825934410E0,7.438784599E0,7.187393665E0
2.212446845E0,-4.776432514E0,8.724471092E0,8.161833763E0
2.214758075E0,-5.705382824E0,9.806650162E0,8.748413086E0
2.216343499E0,-5.983109951E0,1.012747288E1,8.556877136E0
2.218754999E0,-5.080495834E0,9.595960617E0,7.560888767E0
2.220446306E0,-2.547430515E0,8.698134422E0,6.160281181E0
2.223275489E0,9.792284966E-1,7.931990147E0,4.642356873E0
2.225076575E0,4.244919777E0,7.671022415E0,2.394201756E0
2.227356528E0,4.213795185E0,7.920019150E0,1.709460020E0
2.228602383E0,2.561795712E0,8.963891029E0,6.512228847E-1
2.231424605E0,-2.202665567E0,1.119049835E1,5.530605912E-1
2.232664922E0,-4.987122059E0,1.163342571E1,8.212111592E-1
2.235527682E0,-6.222530365E0,1.076433086E1,9.720458984E-1
2.236810460E0,-5.300762653E0,9.493009567E0,1.637633920E0
2.239630874E0,-2.784456491E0,8.200140953E0,2.537853718E0
2.241147729E0,-3.591302410E-2,7.065289021E0,3.074155092E0
2.243734105E0,2.015917778E0,6.667851925E0,3.227383852E0
2.245750845E0,3.007117271E0,6.687005520E0,2.566584110E0
2.247772643E0,2.753331900E0,7.271190643E0,1.821987510E0
2.249038152E0,1.577778935E0,8.214506149E0,1.628057122E0
2.251840220E0,1.484405100E-1,9.540893555E0,2.530671120E0
2.253106883E0,-1.465251446E0,1.091037750E1,4.031835556E0
2.255942528E0,-3.215412855E0,1.120725822E1,4.450820923E0
2.257255845E0,-4.338293552E0,1.060152531E1,3.272873640E0
2.259908999E0,-4.194641590E0,9.911994934E0,1.364694953E0
2.261695460E0,-2.817975283E0,9.979032516E0,4.644751251E-1
2.264145989E0,-7.374141216E-1,1.045069027E1,5.339069963E-1
2.265849845E0,1.395819545E0,1.049857426E1,1.060631394E0
2.267709152E0,1.584961534E0,1.010353088E1,1.082179189E0
2.269449537E0,1.522712231E0,8.779537201E0,9.768342972E-1
2.272017345E0,1.716642618E0,7.776367188E0,1.723825216E0
2.273609383E0,2.480392933E0,8.080430984E0,3.519476414E0
2.276054768E0,2.461239338E0,9.282320023E0,5.360617638E0
2.277784575E0,3.687070608E-1,1.007958889E1,6.129156113E0
2.280017114E0,-2.736572504E0,9.842563629E0,5.793968201E0
2.281854537E0,-4.525041103E0,9.038111687E0,5.377377033E0
2.284595835E0,-3.722983599E0,8.010998726E0,5.238513470E0
2.286031691E0,8.140286058E-2,6.418854713E0,4.778826714E0
2.288196229E0,1.783680320E0,6.519411087E0,4.498704910E0
2.290002960E0,1.187524080E0,7.817068577E0,4.357447147E0
2.292343614E0,-1.889025092E0,9.342175484E0,4.278438568E0
2.293962883E0,-5.628767967E0,1.049139214E1,4.168305397E0
2.296316922E0,-7.460332394E0,1.150413895E1,4.206612587E0
2.298051422E0,-5.901707172E0,1.192791271E1,3.627215624E0
2.300515268E0,-1.889025092E0,1.105881786E1,1.654393315E0
2.302200037E0,2.188300371E0,9.560047150E0,-3.591302633E-1
2.305030258E0,4.462791920E0,8.226476669E0,-1.278503656E0
2.306674383E0,4.017470360E0,7.912836552E0,-4.836287498E-1
2.309099374E0,1.029506683E0,8.652645111E0,1.544260144E0
2.310314383E0,-3.035847664E0,9.421183586E0,3.433285236E0
2.313167643E0,-5.841852188E0,9.588777542E0,4.797980309E0
2.314425652E0,-5.755661011E0,9.102754593E0,5.980715752E0
2.317269797E0,-3.454833031E0,8.374917984E0,7.486668587E0
2.318519460E0,-9.528923035E-1,7.240066051E0,8.693346024E0
2.321372374E0,6.560112834E-1,6.112396717E0,8.860940933E0
2.322679537E0,1.716642618E0,6.189011574E0,8.379706383E0
2.325474835E0,2.877830505E0,7.311892033E0,7.244854450E0
2.327342845E0,4.982333660E0,8.588001251E0,3.914519787E0
2.329517258E0,5.664681435E0,8.844181061E0,2.774879694E0
2.331017383E0,6.545747280E0,9.454702377E0,1.137245774E0
2.333585104E0,5.971138954E0,1.027351952E1,1.412578970E-1
2.334834537E0,3.569754839E0,1.122641182E1,-1.019929886E0
2.337688104E0,-3.591302410E-2,1.227507210E1,-2.650381327E0
2.339061422E0,-3.471592426E0,1.334288597E1,-4.034229755E0
2.341663114E0,-5.284003258E0,1.404438686E1,-4.381389141E0
2.343058729E0,-4.824316502E0,1.368765068E1,-3.730166197E0
2.345892874E0,-2.008735180E0,1.132457447E1,-1.345541358E0
2.347648883E0,-7.038952708E-1,9.768342972E0,9.528923035E-1
2.349396075E0,-6.703764945E-2,8.963891029E0,3.660734415E0
2.351447845E0,6.775590777E-1,8.633491516E0,6.409277916E0
2.353703191E0,2.075772762E0,7.762001991E0,8.303091049E0
2.355439883E0,4.089296341E0,6.481103897E0,9.196128845E0
2.357848306E0,5.679046631E0,5.561730385E0,9.574412346E0
2.359710883E0,5.693411827E0,5.846640587E0,9.873687744E0
2.361991845E0,3.483563423E0,7.132327080E0,9.938331604E0
2.363626537E0,-4.118026793E-1,8.190564156E0,9.165003777E0
2.366362874E0,-4.204218388E0,8.832210541E0,7.886500359E0
2.367748922E0,-5.930437565E0,9.540893555E0,6.806715488E0
2.370020229E0,-4.680664539E0,1.028070164E1,5.734113216E0
2.371748537E0,-1.659181833E0,1.025197124E1,3.679888010E0
2.374203460E0,8.906430602E-1,9.718064308E0,1.259350061E0
2.375881845E0,1.742978811E0,9.296685219E0,-3.615244627E-1
2.378243152E0,8.595184088E-1,9.236829758E0,-4.237737060E-1
2.379889998E0,-1.204283476E0,9.215282440E0,1.005564690E0
2.382331652E0,-3.485957623E0,8.501810074E0,2.882618904E0
2.384006921E0,-4.692635536E0,7.532158375E0,5.003881454E0
2.386847873E0,-4.149151325E0,6.907271862E0,7.287950039E0
2.388520306E0,-2.542642117E0,6.636727333E0,1.030703831E1
2.390920066E0,-2.451662540E0,6.603208065E0,1.108515358E1
2.392184075E0,-2.477998734E0,6.593631268E0,1.195903778E1
2.394987450E0,-1.522712231E0,6.983886242E0,1.188242340E1
2.396259537E0,1.168370485E0,7.383718014E0,1.052969933E1
2.399089720E0,7.659051418E0,6.696582317E0,5.262455463E0
2.400324460E0,1.206677628E1,6.380547523E0,8.714894056E-1
2.403192873E0,1.445140171E1,7.443572998E0,-2.674323320E0
2.404558306E0,1.306515884E1,9.811438560E0,-4.982333660E0
2.407296143E0,7.831433773E0,1.264377880E1,-6.411672115E0
2.409299268E0,9.983820915E-1,1.504755783E1,-7.125144482E0
2.411342219E0,-4.616020679E0,1.616564941E1,-7.340622425E0
2.412638652E0,-7.580042362E0,1.605791092E1,-6.277596951E0
2.415409989E0,-7.556100368E0,1.491587639E1,-3.624821424E0
2.416684345E0,-5.123591423E0,1.226549530E1,-9.217676520E-1
2.419512527E0,-1.757344007E0,8.576030731E0,1.070208192E0
2.420855652E0,1.996764183E0,6.009446144E0,3.157952070E0
2.423615412E0,5.317522049E0,5.722142220E0,6.038176537E0
2.424947229E0,6.701370716E0,6.780379295E0,9.148244858E0
2.427718219E0,5.540182590E0,7.747636795E0,1.162624359E1
2.429536614E0,2.798821688E0,7.687781811E0,1.303403378E1
2.431309421E0,2.106897533E-1,7.405265808E0,1.426944256E1
2.433033729E0,-1.101332784E0,7.249642849E0,1.503079796E1
2.435499729E0,-1.355118155E0,6.900089264E0,1.384566879E1
2.437181960E0,-1.352723956E0,6.777985096E0,1.065898609E1
2.439677691E0,-1.482010841E0,7.773972988E0,6.907271862E0
2.441363191E0,-1.759738207E0,9.588777542E0,3.859453201E0
2.443741614E0,-2.580949545E0,1.066616821E1,1.647210717E0
2.445374575E0,-3.754108191E0,1.050815105E1,5.123591423E-1
2.448194527E0,-4.213795185E0,9.931148529E0,7.996633649E-1
2.449545460E0,-2.303221941E0,9.267954826E0,2.765302896E0
2.451844268E0,-1.333570361E0,8.327033043E0,3.962403774E0
2.453687037E0,-1.910573006E0,7.785943985E0,5.719748020E0
2.456069806E0,-3.083731890E0,8.322244644E0,8.051700592E0
2.457670729E0,-3.600879431E0,9.248801231E0,9.651026726E0
2.460101498E0,-2.839523315E0,9.414001465E0,9.536105156E0
2.462022460E0,-2.561795712E-1,8.291120529E0,7.608773232E0
2.464447652E0,4.424484730E0,6.607996464E0,4.707000732E0
2.465931614E0,9.550470352E0,5.791574001E0,2.154781580E0
2.468735758E0,1.177707863E1,6.296750546E0,4.860229492E-1
2.470506345E0,9.296685219E0,7.805097580E0,-6.943184733E-1
2.472817604E0,3.478775024E0,1.075954247E1,-1.424550056E0
2.474023960E0,-3.059789658E0,1.444900703E1,-1.776497602E0
2.476885373E0,-7.436390400E0,1.664448929E1,-2.152387381E0
2.478144268E0,-7.362170219E0,1.592144108E1,-2.875436306E0
2.480987758E0,-2.348711967E0,1.274194145E1,-3.758896589E0
2.482289614E0,4.896142483E0,9.514557838E0,-3.976768970E0
2.485089681E0,1.031661510E1,7.718906403E0,-3.493140221E0
2.486466498E0,1.171961689E1,7.699752808E0,-2.631227732E0
2.489191719E0,9.485827446E0,8.621520042E0,-1.647210717E0
2.490993114E0,3.057395458E0,1.062307262E1,1.321599364E0
2.493231296E0,1.077390790E0,1.134372807E1,2.817975283E0
2.494519960E0,-1.711854219E0,1.255519390E1,5.880159378E0
2.497298988E0,-3.071760893E0,1.278743172E1,8.006210327E0
2.498566460E0,-3.952826977E0,1.118331623E1,8.336610794E0
2.501401642E0,-4.723760128E0,8.362946510E0,7.876923561E0
2.502646152E0,-3.464409828E0,4.177882195E0,7.848193169E0
2.505396152E0,-1.113303781E0,2.944868088E0,8.638279915E0
2.506779614E0,1.436520964E-1,3.471592426E0,9.993397713E0
2.509605873E0,-9.385270476E-1,5.243301868E0,1.137245846E1
2.511280844E0,-3.938461781E0,7.268796444E0,1.244984913E1
2.513142229E0,-7.352593422E0,8.683769226E0,1.359667110E1
2.514962268E0,-9.136273384E0,9.176975250E0,1.499488544E1
2.517417844E0,-7.524975777E0,8.458714485E0,1.538753414E1
2.519026883E0,-2.406172752E0,6.375759125E0,1.284010410E1
2.521553998E0,4.118026733E0,4.216189384E0,7.656657219E0
2.523235729E0,9.299078941E0,3.636792421E0,1.697489023E0
2.525499114E0,1.081700325E1,5.439626217E0,-3.186682463E0
2.527401306E0,7.431602001E0,8.870517731E0,-5.532999992E0
2.530072642E0,4.309563041E-1,1.266053867E1,-5.693411827E0
2.531582229E0,-7.058106422E0,1.558864689E1,-4.563348293E0
2.533736152E0,-1.162624359E1,1.690306473E1,-3.100491285E0
2.535511191E0,-1.137006378E1,1.569159794E1,-2.166752577E0
2.537807806E0,-6.301538944E0,1.262941360E1,-2.169146776E0
2.539512691E0,5.051765442E-1,9.416395187E0,-2.396595955E0
2.541829998E0,5.197812080E0,7.548917770E0,-1.508347034E0
2.543543652E0,7.232883453E0,7.548917770E0,4.022258818E-1
2.546004268E0,8.233659744E0,8.243236542E0,1.711854219E0
2.547662344E0,8.530540466E0,8.719682693E0,2.003946781E0
2.550505604E0,8.075642586E0,8.904036522E0,2.049436569E0
2.552133806E0,7.323863029E0,9.914389610E0,3.354276657E0
2.554583411E0,6.816292286E0,1.039801788E1,4.223371983E0
2.555825268E0,4.170699596E0,1.048899746E1,5.348646641E0
2.558651834E0,-3.933673382E0,8.568847656E0,5.087678432E0
2.559885344E0,-8.382100105E0,7.682993412E0,4.302380562E0
2.562755180E0,-9.952696800E0,8.434772491E0,4.680664539E0
2.564050191E0,-9.674968719E0,1.002212811E1,7.094019413E0
2.566858757E0,-8.662221909E0,9.976638794E0,9.859322548E0
2.568229460E0,-7.048529625E0,7.845798969E0,1.212423706E1
2.570962103E0,-4.613626480E0,5.128379822E0,1.416649151E1
2.572766421E0,-1.209071875E0,3.751713991E0,1.619916916E1
2.575002565E0,3.236960649E0,3.780444384E0,1.679053688E1
2.576289421E0,7.383718014E0,3.598485231E0,1.392707157E1
2.579070796E0,8.726864815E0,3.318363667E0,9.064447403E0
2.581105950E0,6.524199486E0,4.240131378E0,5.149928093E0
2.583175142E0,2.118868589E0,7.237671852E0,3.143586874E0
2.584557921E0,-3.866635799E0,1.097741508E1,2.104503393E0
2.587278719E0,-9.926360130E0,1.312740803E1,4.860229492E-1
2.588628998E0,-1.277067184E1,1.326148319E1,-2.027888775E0
2.591381911E0,-1.029746151E1,1.286643982E1,-3.902548790E0
2.593303421E0,-5.315127969E-1,1.261504841E1,-4.213795185E0
2.594963267E0,2.530671120E0,1.212184334E1,-4.197035789E0
2.596744498E0,6.751648903E0,1.051054573E1,-4.271255970E0
2.599372729E0,8.860940933E0,9.308655739E0,-4.280832767E0
2.600869152E0,9.660603523E0,9.854534149E0,-3.706224203E0
2.603284537E0,9.528923035E0,1.182017422E1,-2.343923569E0
2.605375306E0,8.398859978E0,1.295981407E1,-1.108515382E0
2.607355075E0,6.138733387E0,1.216493893E1,9.097966552E-2
2.609024537E0,3.272873640E0,1.060391903E1,1.975216389E0
2.611866873E0,-3.519476354E-1,8.245630264E0,4.297592163E0
2.613218191E0,-1.690306425E0,6.646304131E0,3.696647406E0
2.615499037E0,-3.208230257E0,7.055712223E0,3.672705412E0
2.617300806E0,-5.300762653E0,9.756371498E0,6.248866558E0
2.619715883E0,-6.840234280E0,1.196382618E1,9.416395187E0
2.621453498E0,-7.208941460E0,1.148019695E1,1.124795914E1
2.623737460E0,-5.820304394E0,8.425195694E0,1.177947235E1
2.625472691E0,-1.285686255E0,5.609614372E0,1.251449203E1
2.627987767E0,6.177040577E0,4.726154327E0,1.334288597E1
2.629887614E0,1.304600525E1,3.993528366E0,1.146343803E1
2.632406949E0,1.498530865E1,2.557007313E0,6.588842869E0
2.634178883E0,1.113303757E1,2.925714493E0,2.662352324E0
2.636481526E0,3.749319792E0,6.313509941E0,1.929726601E0
2.637694075E0,-4.783615112E0,1.098220348E1,2.906560898E0
2.640549565E0,-1.257195282E1,1.407072353E1,3.062183857E0
2.641894729E0,-1.734599113E1,1.469321537E1,1.613691926E0
2.644652796E0,-1.728613663E1,1.395340729E1,5.410895944E-1
2.645903421E0,-1.250730991E1,1.273236465E1,1.211466074E0
2.648755219E0,-4.912901878E0,1.065419769E1,2.164358377E0
2.650179767E0,2.657563925E0,8.082824707E0,2.027888775E0
2.652858103E0,8.619126320E0,6.979097843E0,1.165976286E0
2.654772498E0,1.362540150E1,9.658209801E0,9.145850539E-1
2.656903026E0,1.413776112E1,1.085531044E1,1.132457376E0
2.658211806E0,1.318247414E1,1.131499767E1,1.170764685E0
2.660970565E0,1.064940929E1,9.114726067E0,5.171475410E-1
2.662349229E0,7.726089001E0,7.424419403E0,3.998316824E-1
2.665073795E0,2.487575531E0,8.736441612E0,5.889736414E-1
2.666336114E0,-3.282450438E0,1.086728191E1,1.915361360E-2
2.669023729E0,-1.014183807E1,1.250730991E1,1.125274822E-1
2.670478537E0,-1.452322769E1,1.316810894E1,1.606509328E0
2.673280911E0,-1.367568016E1,1.326866627E1,4.438849926E0
2.675004037E0,-8.020575523E0,1.204522896E1,6.562506676E0
2.676774960E0,3.663128614E-1,9.165003777E0,6.605602264E0
2.678584883E0,9.157821655E0,5.760449409E0,5.446808815E0
2.681014691E0,1.590468216E1,3.366247654E0,4.680664539E0
2.682728306E0,1.761653519E1,2.875436306E0,5.523423195E0
2.685127152E0,1.291911221E1,3.785232782E0,7.297526836E0
2.687053998E0,3.658340216E0,5.892130375E0,8.841787338E0
2.689145267E0,-6.291962147E0,9.095572472E0,9.983820915E0
2.690863383E0,-1.363976669E1,1.225352383E1,1.078348446E1
2.693657872E0,-1.659660530E1,1.318726254E1,1.059434223E1
2.695042421E0,-1.450886250E1,1.213860226E1,1.005085850E1
2.697346383E0,-8.200140953E0,1.046745014E1,9.246406555E0
2.699054767E0,1.508347094E-1,9.018958092E0,7.175422668E0
2.701496844E0,7.900865555E0,8.073247910E0,3.471592426E0
2.703256844E0,1.378341961E1,7.082048416E0,-1.189918280E0
2.705580383E0,1.764287186E1,6.038176537E0,-5.236119270E0
2.707295114E0,1.880645370E1,5.439626217E0,-7.364564419E0
2.709741229E0,1.599566174E1,6.593631268E0,-7.108384609E0
2.711483152E0,8.128314972E0,9.952696800E0,-5.097255230E0
2.714212372E0,-9.497797966E0,1.596693134E1,-2.566584110E0
2.716061498E0,-1.980004883E1,1.797566605E1,-1.486799240E0
2.718275295E0,-2.448310661E1,1.665885544E1,-2.968810201E-1
2.719449652E0,-2.075054550E1,1.341950035E1,1.338358760E0
2.722344064E0,-1.011789608E1,1.020408726E1,3.193865061E0
2.723607114E0,2.145204782E0,7.793126583E0,4.826710701E0
2.726447757E0,1.115697956E1,5.748478413E0,5.676652431E0
2.727851614E0,1.497333717E1,3.375824451E0,5.724536419E0
2.730551603E0,1.421437550E1,1.754949808E0,6.617573261E0
2.731805344E0,1.047463226E1,2.082955360E0,9.457097054E0
2.734655295E0,5.140350819E0,4.809951305E0,1.359427738E1
2.736527114E0,-8.451532125E-1,8.279149055E0,1.650802040E1
2.738696526E0,-6.830657482E0,1.013704967E1,1.601242065E1
2.739909767E0,-1.137485218E1,9.576807022E0,1.255758762E1
2.742764911E0,-1.208832455E1,8.451532364E0,9.030928612E0
2.743970460E0,-8.082824707E0,8.702922821E0,7.086836815E0
2.746868180E0,-1.328781962E0,9.763554573E0,4.944026470E0
2.748069460E0,5.013458252E0,1.025197124E1,9.050082564E-1
2.750811114E0,9.121908188E0,9.749189377E0,-4.484339714E0
2.752206306E0,1.048181534E1,8.719682693E0,-8.822632790E0
2.755074795E0,8.923190117E0,8.097189903E0,-9.991003990E0
2.756920190E0,1.991975784E0,9.895236015E0,-5.784391403E0
2.758541767E0,-9.600749016E-1,1.101093388E1,-4.084507942E0
2.760349344E0,-7.273584843E0,1.305797577E1,-1.845929503E0
2.762874921E0,-1.334288597E1,1.444421864E1,-4.333505034E-1
2.764461114E0,-1.683842087E1,1.436760426E1,1.204283476E0
2.766928614E0,-1.523909378E1,1.284728622E1,3.541024208E0
2.768591883E0,-8.429984093E0,1.044590187E1,6.663063526E0
2.770954767E0,6.636727333E0,5.920860767E0,9.457097054E0
2.772687306E0,1.480095482E1,3.383007050E0,8.717288017E0
2.775559257E0,1.875617599E1,2.477998734E0,7.271190643E0
2.776952921E0,1.750640297E1,3.423708439E0,6.698976517E0
2.779173460E0,1.105163479E1,5.580883980E0,7.931990147E0
2.780849998E0,1.273715258E0,7.946355343E0,9.873687744E0
2.783302921E0,-8.580819130E0,1.002931118E1,1.103966427E1
2.784923883E0,-1.544260120E1,1.129584408E1,1.046026707E1
2.787313652E0,-1.783201408E1,1.141794777E1,8.422801971E0
2.789061575E0,-1.554315758E1,1.078587818E1,6.335057735E0
2.791651537E0,-9.888052940E0,9.780313492E0,4.776432514E0
2.793144729E0,-2.940079689E0,8.781931877E0,3.481169224E0
2.796004910E0,3.469198227E0,7.977479935E0,1.675941229E0
2.797660229E0,8.327033043E0,7.714118004E0,-6.057330370E-1
2.800073603E0,1.109951878E1,8.339004517E0,-2.322375536E0
2.801257960E0,1.108754826E1,9.203310966E0,-3.009511471E0
2.804142410E0,7.920019150E0,9.619902611E0,-2.468421936E0
2.805372075E0,2.267308950E0,9.751583099E0,-1.074996591E0
2.808246410E0,-4.096478939E0,9.938331604E0,3.064578176E-1
2.809453613E0,-9.411606789E0,1.069968700E1,1.295263171E0
2.812350218E0,-1.241633034E1,1.199973869E1,2.142810583E0
2.813854883E0,-1.234450436E1,1.252885723E1,2.743755102E0
2.816453256E0,-9.148244858E0,1.169806957E1,3.639186621E0
2.818231652E0,-7.134721279E-1,8.506598473E0,5.791574001E0
2.820492333E0,2.401384354E0,7.362170219E0,6.382941723E0
2.821680921E0,8.276755333E0,5.808333397E0,6.993463039E0
2.824560795E0,1.264377880E1,5.111620426E0,6.198588371E0
2.825768190E0,1.402283955E1,5.111620426E0,4.479551315E0
2.828663872E0,9.153033257E0,6.670246124E0,3.667917013E0
2.829877306E0,2.590526342E0,8.743624687E0,4.582501888E0
2.832611190E0,-5.231330872E0,1.065180302E1,5.286397457E0
2.834016960E0,-1.236605167E1,1.145146656E1,4.910507679E0
2.836870756E0,-1.598847866E1,1.132696819E1,4.012681961E0
2.838597613E0,-1.461899567E1,1.109233665E1,3.746925592E0
2.840380152E0,-9.622296333E0,1.060391903E1,4.074931145E0
2.842186960E0,-3.907337189E0,9.794678688E0,4.788403511E0
2.844674806E0,9.002198577E-1,8.832210541E0,5.343858242E0
2.846270498E0,4.805162907E0,7.951143742E0,5.104437828E0
2.848761883E0,8.018181801E0,7.374141216E0,4.197035789E0
2.850421883E0,1.026394272E1,6.950367451E0,3.023876667E0
2.852788806E0,1.103248119E1,7.065289021E0,2.439691544E0
2.854499613E0,9.488221169E0,8.003816605E0,2.930502892E0
2.857345756E0,5.152322292E0,9.097966194E0,3.287238836E0
2.858683190E0,-1.127668977E0,9.849745750E0,2.327163935E0
2.860976767E0,-7.005434036E0,1.036928749E1,2.705447972E-1
2.862946190E0,-1.009874249E1,1.123838234E1,-1.343147159E0
2.865160767E0,-9.883264542E0,1.227507210E1,-1.312022567E0
2.866827998E0,-7.668628216E0,1.262701988E1,1.532289088E-1
2.869197075E0,-5.073313236E0,1.176271248E1,2.039859772E0
2.870966998E0,-2.983175278E0,1.018972206E1,3.658340216E0
2.873365267E0,-9.888052940E-1,8.777143478E0,5.195417881E0
2.875010652E0,4.012681961E0,6.976703644E0,6.856993675E0
2.877887487E0,7.929595947E0,5.798756599E0,7.357381821E0
2.879501421E0,1.013704967E1,5.401319027E0,7.948749542E0
2.881960641E0,9.112331390E0,5.774814606E0,8.312667847E0
2.883274344E0,4.745307922E0,6.856993675E0,8.269572258E0
2.886029602E0,-1.774103403E0,8.152256966E0,7.680599213E0
2.887251075E0,-7.838616371E0,9.306262016E0,6.787561893E0
2.890132872E0,-1.074996567E1,1.016578007E1,6.026205540E0
2.891415883E0,-9.509769440E0,1.036928749E1,5.310339451E0
2.894235833E0,-5.880159378E0,1.018493366E1,4.790797710E0
2.895525190E0,-2.403778553E0,9.777919769E0,4.295197964E0
2.898339064E0,3.351882473E-2,9.366117477E0,3.383007050E0
2.900220306E0,2.942473888E0,9.090784073E0,1.414973259E0
2.902387064E0,4.019864559E0,8.959102631E0,7.445967197E-1
2.903579575E0,6.373364925E0,8.611943245E0,-3.447650373E-1
2.906455910E0,8.315062523E0,8.671798706E0,-8.307880163E-1
2.907674037E0,8.403648376E0,9.433155060E0,-9.433154464E-1
2.910559256E0,5.523423195E0,1.052012253E1,-1.247379065E0
2.911783190E0,1.628057212E-1,1.133175659E1,-1.798045516E0
2.914519767E0,-5.434837818E0,1.160709000E1,-2.171540976E0
2.915903036E0,-8.408436775E0,1.148259163E1,-1.867477298E0
2.918766410E0,-7.984662533E0,1.103966427E1,-8.427590132E-1
2.920439190E0,-4.426878929E0,1.043871975E1,2.494758129E0
2.922439152E0,-3.399766445E0,1.008677197E1,3.708618402E0
2.924119306E0,-2.319981337E0,9.107542992E0,5.987898350E0
2.926577306E0,-2.121262789E0,8.379706383E0,8.506598473E0
2.928267960E0,-1.369483352E0,7.838616371E0,1.090558910E1
2.930805690E0,2.777273893E0,6.567295074E0,1.279700851E1
2.932362613E0,6.576871872E0,5.284003258E0,1.228225517E1
2.934656190E0,9.229647636E0,4.376600742E0,1.044829655E1
2.936398460E0,8.990227699E0,4.836287498E0,8.142680168E0
2.939241833E0,5.319916248E0,6.502651691E0,5.741295815E0
2.940591652E0,-4.237737060E-1,8.784325600E0,3.349488258E0
2.942895460E0,-6.138733387E0,1.108994198E1,1.561019540E0
2.944618921E0,-9.557653427E0,1.277546024E1,3.711012602E-1
2.947359306E0,-9.756371498E0,1.320641613E1,-7.996633649E-1
2.948741113E0,-7.532158375E0,1.240914726E1,-1.860294700E0
2.951190536E0,-4.285621166E0,1.135809326E1,-2.035071373E0
2.952814767E0,-1.194706678E0,1.070208168E1,-1.194706678E0
2.955345267E0,1.086967587E0,1.022324085E1,9.816227108E-2
2.957203575E0,2.837129116E0,9.607931137E0,1.180341482E0
2.959790525E0,4.723760128E0,8.913613319E0,2.039859772E0
2.961653844E0,8.008605003E0,8.362946510E0,3.303998232E0
2.963872140E0,8.702922821E0,8.350975990E0,3.651157618E0
2.965092152E0,8.456320763E0,8.470685959E0,3.967192173E0
2.967941064E0,5.892130375E0,9.021351814E0,3.770867586E0
2.969231767E0,1.956062794E0,9.950302124E0,3.397372246E0
2.972045102E0,-1.893813491E0,1.043153667E1,2.715024710E0
2.973344921E0,-4.546588898E0,1.027112484E1,1.999158382E0
2.976148910E0,-5.248090267E0,9.701305389E0,1.549048543E0
2.977395652E0,-3.878606796E0,9.399636269E0,2.070984364E0
2.980252910E0,-3.320757866E0,9.816226959E0,3.617638826E0
2.982128844E0,-3.576937437E0,9.883264542E0,5.219359875E0
2.984294948E0,-3.811569214E0,9.859322548E0,7.055712223E0
2.985744613E0,-2.789244890E0,9.598354340E0,8.719682693E0
2.988363948E0,1.077390760E-1,8.769960403E0,9.631873131E0
2.989643536E0,4.244919777E0,7.211335659E0,9.418789864E0
2.992467871E0,8.271966934E0,5.293580055E0,7.788338184E0
2.993855960E0,1.062307262E1,4.455609322E0,5.413290024E0
2.996471613E0,9.789890289E0,5.468356609E0,3.019088268E0
2.997832421E0,5.401319027E0,7.989450932E0,1.173158884E0
3.000673833E0,-1.072602391E0,1.106599998E1,2.561795712E-1
3.002374998E0,-7.208941460E0,1.352005672E1,3.160346150E-1
3.004273306E0,-1.087685871E1,1.438436413E1,6.775590777E-1
3.006039998E0,-1.109951878E1,1.347696114E1,1.017535686E0
3.008427152E0,-7.728483200E0,1.110430717E1,8.834604025E-1
3.010065344E0,-2.164358377E0,8.688557625E0,6.655880809E-1
3.012524767E0,3.057395458E0,7.711723804E0,1.417367458E0
3.014181652E0,6.184223175E0,7.934384346E0,2.633621931E0
3.016522075E0,6.957550049E0,8.676587105E0,3.699041605E0
3.018292536E0,5.973533154E0,9.064447403E0,4.378994942E0
3.021137525E0,4.762067318E0,9.081207275E0,4.932055473E0
3.022573421E0,4.429273129E0,9.409213066E0,5.506663799E0
3.024690613E0,4.606443882E0,9.528923035E0,5.164293289E0
3.026381190E0,3.943250179E0,9.038111687E0,3.462015629E0
3.028833690E0,1.651999116E0,9.167398453E0,2.020706177E0
3.030595652E0,-1.642422318E0,1.034774017E1,1.584961534E0
3.032838844E0,-4.984727859E0,1.153047562E1,1.450886250E0
3.034574613E0,-7.340622425E0,1.180341434E1,1.383848548E0
3.037031883E0,-5.983109951E0,1.056321812E1,2.080561161E0
3.038790536E0,-1.968033791E0,9.483432770E0,3.766079187E0
3.041552025E0,1.891419291E0,8.020575523E0,5.846640587E0
3.043391421E0,3.955221176E0,6.576871872E0,7.745242596E0
3.045631294E0,4.338293552E0,6.095637321E0,9.387664795E0
3.046855036E0,3.780444384E0,6.811503887E0,1.064940929E1
3.049699525E0,2.803610086E0,7.783549786E0,1.077630138E1
3.050946190E0,2.128445387E0,7.817068577E0,9.064447403E0
3.053778525E0,2.413355350E0,7.302315235E0,6.229712963E0
3.055037729E0,3.045424461E0,7.386112213E0,3.679888010E0
3.057846986E0,2.444479942E0,8.276755333E0,1.838746905E0
3.059091690E0,-1.268926859E-1,9.459490776E0,3.495534360E-1
3.061950717E0,-3.845088005E0,1.062067890E1,-9.959878922E-1
3.063885113E0,-7.764396191E0,1.261265469E1,-1.728613615E0
3.065991794E0,-8.090007782E0,1.298375607E1,-1.584961534E0
3.067373267E0,-7.024587631E0,1.281855583E1,-7.781155705E-1
3.070060602E0,-3.861847401E0,1.130302620E1,2.298433632E-1
3.071487113E0,3.998316824E-1,9.246406555E0,1.134851575E0
3.074163640E0,4.343081951E0,7.999027729E0,2.343923569E0
3.075461690E0,6.916848660E0,7.706935406E0,3.600879431E0
3.078122536E0,7.694964409E0,7.644686222E0,4.510675907E0
3.079567806E0,6.835445881E0,7.635109425E0,5.252878666E0
3.082369871E0,5.011064053E0,7.812280178E0,5.908889771E0
3.084116883E0,1.642422318E0,8.516175270E0,5.992686749E0
3.085852575E0,4.237737060E-1,8.755595207E0,5.626373768E0
3.087655767E0,-2.097320795E0,9.323021889E0,4.469974518E0
3.090144652E0,-4.455609322E0,1.035492229E1,3.438073635E0
3.091745075E0,-6.174646378E0,1.147301483E1,2.841917515E0
3.094223652E0,-6.593631268E0,1.127429581E1,2.152387381E0
3.095856267E0,-5.015852451E0,9.950302124E0,2.085349798E0
3.098227767E0,-1.853112102E0,8.293514252E0,2.200271368E0
3.099989229E0,1.788468719E0,6.926425457E0,2.604891539E0
3.102832371E0,4.328716755E0,6.107608318E0,3.445256233E0
3.104167498E0,4.838681698E0,6.105214119E0,4.809951305E0
3.106466383E0,3.138798475E0,7.019799232E0,6.710947514E0
3.108200344E0,-2.322375625E-1,8.547300339E0,8.690952301E0
3.110657844E0,-3.708618402E0,9.777919769E0,9.897629738E0
3.112299536E0,-5.494692802E0,1.005804157E1,9.940725327E0
3.114694652E0,-4.577713490E0,9.203310966E0,8.865729332E0
3.116394613E0,-1.498770237E0,7.556100368E0,6.909666061E0
3.118992806E0,2.025494576E0,6.047753334E0,4.651933670E0
3.120591536E0,4.127603531E0,5.755661011E0,2.580949545E0
3.123374024E0,3.852270603E0,7.034164429E0,1.007958889E0
3.125396113E0,-6.895300746E-1,1.031422138E1,-2.968810201E-1
3.127448332E0,-2.566584110E0,1.142991924E1,-3.208230138E-1
3.128708459E0,-5.475539207E0,1.304121685E1,5.746084079E-2
3.131517563E0,-6.303933144E0,1.319683933E1,6.392518282E-1
3.132743267E0,-4.898536682E0,1.189200020E1,1.185129881E0
3.135621486E0,-1.853112102E0,9.409213066E0,1.144428372E0
3.136855844E0,1.592144132E0,7.366958618E0,1.091755986E0
3.139724640E0,3.998316765E0,6.876147270E0,1.620874524E0
3.140966498E0,4.378994942E0,7.644686222E0,2.528276920E0
3.143828678E0,1.218648672E0,9.179368973E0,4.151545525E0
3.145671652E0,-1.426944256E0,1.006282997E1,5.535394192E0
3.147875409E0,-2.880224705E0,1.054885292E1,6.670246124E0
3.149072229E0,-2.820369720E0,1.035971069E1,6.931213856E0
3.151944909E0,-1.680729628E0,9.277531624E0,5.841852188E0
3.153184729E0,-2.130839527E-1,8.259995461E0,4.292803764E0
3.156048447E0,8.595184088E-1,8.259995461E0,3.378218651E0
3.157377729E0,8.259995580E-1,8.729259491E0,2.774879694E0
3.160114767E0,-5.889736414E-1,9.004592896E0,2.226607561E0
3.161635767E0,-2.446874142E0,8.963891029E0,1.946485996E0
3.164256217E0,-3.284844637E0,8.999804497E0,2.298433542E0
3.166171921E0,-2.782062292E0,8.983044624E0,3.136404276E0
3.167930652E0,-1.912967205E0,8.418013573E0,3.885789394E0
3.169557306E0,-1.606509328E0,7.735665798E0,4.802768707E0
3.172038267E0,-1.877054095E0,7.685387611E0,6.100425720E0
3.173697652E0,-2.473210335E0,8.377311707E0,7.381323814E0
3.176121421E0,-3.339911461E0,8.939949036E0,7.915230751E0
3.177768306E0,-3.677493811E0,8.678980827E0,7.381323814E0
3.180129613E0,-2.384624958E0,8.020575523E0,6.435614109E0
3.181875767E0,2.825157940E-1,7.398083210E0,5.499481201E0
3.184726140E0,2.724601507E0,6.847416878E0,4.209006786E0
3.186072267E0,3.404554844E0,6.665457726E0,2.274491549E0
3.188368113E0,2.051830769E0,7.601590633E0,3.567360640E-1
3.190109421E0,-6.967126727E-1,9.636661530E0,-7.781155705E-1
3.192562959E0,-3.778050184E0,1.186566353E1,-1.106121182E0
3.194206536E0,-7.105990410E0,1.424550056E1,-4.453215301E-1
3.196654882E0,-7.843404770E0,1.396537876E1,1.340752989E-1
3.198315998E0,-6.777985096E0,1.210268974E1,6.799532771E-1
3.200783806E0,-3.411737442E0,9.215282440E0,8.762778044E-1
3.202424306E0,1.551442742E0,6.914454460E0,9.911994934E-1
3.205276409E0,5.796362400E0,6.119579315E0,1.398213744E0
3.207295575E0,7.268796444E0,6.895300865E0,2.269703150E0
3.209358216E0,5.463568211E0,8.525752068E0,3.485957623E0
3.210599536E0,1.297657371E0,9.773131371E0,4.513070107E0
3.213427332E0,-3.256114244E0,1.046745014E1,5.379771233E0
3.214751152E0,-6.114790916E0,1.097980881E1,6.047753334E0
3.217531024E0,-6.165069580E0,1.113303757E1,5.872976780E0
3.218819729E0,-4.247313976E0,1.055603504E1,4.496310711E0
3.221635024E0,-2.142810583E0,9.574412346E0,2.935291290E0
3.222906306E0,-8.595184088E-1,8.465897560E0,2.008735180E0
3.225739101E0,-5.602431893E-1,7.580042362E0,1.867477298E0
3.227524690E0,-1.412579060E0,7.445967197E0,2.932897091E0
3.229782101E0,-1.776497602E0,7.690176010E0,3.445256233E0
3.231098998E0,-2.286462545E0,8.396465302E0,4.797980309E0
3.233850678E0,-2.473210335E0,8.813055992E0,6.449979305E0
3.235104959E0,-2.664746523E0,8.647856712E0,8.274360657E0
3.237954293E0,-3.174711466E0,8.056488991E0,9.842563629E0
3.239567998E0,-3.622427225E0,7.457938194E0,1.066856289E1
3.241992382E0,-3.112462282E0,7.161057472E0,1.039322948E1
3.243530498E0,-1.343147159E0,6.593631268E0,8.494627953E0
3.246161755E0,1.479616642E0,5.612008572E0,5.209783077E0
3.247865613E0,4.991910458E0,5.442020416E0,6.584054828E-1
3.249650959E0,4.264073372E0,7.038952827E0,-6.607996821E-1
3.251454305E0,3.423708379E-1,9.519346237E0,-1.086967587E0
3.254022921E0,-5.054159641E0,1.261504841E1,-1.276109457E0
3.255543190E0,-9.828198433E0,1.532289124E1,-1.369483352E0
3.258046729E0,-1.237802315E1,1.578976059E1,-1.455674648E0
3.259655344E0,-1.101332760E1,1.334528065E1,-1.625662923E0
3.262030382E0,-5.394136429E0,9.586383820E0,-1.845929503E0
3.263924267E0,1.663970232E0,7.252037048E0,-1.426944256E0
3.266634178E0,6.141127586E0,6.816292286E0,-5.913678408E-1
3.268082575E0,6.521805286E0,7.572859764E0,1.292868853E-1
3.270203921E0,3.835511208E0,8.530540466E0,7.374141216E-1
3.271888267E0,3.615244627E-1,9.351752281E0,1.709460020E0
3.274346729E0,-1.891419291E0,1.073799419E1,3.610456228E0
3.276001652E0,-2.571372509E0,1.207635307E1,5.489904404E0
3.278374921E0,-2.446874142E0,1.214578533E1,5.693411827E0
3.280201844E0,-2.557007313E0,1.057040024E1,4.055777550E0
3.282560882E0,-3.217807055E0,8.520963669E0,2.444479942E0
3.284252805E0,-3.797203779E0,7.134721279E0,2.214636564E0
3.287070332E0,-3.598485231E0,6.825869083E0,3.160346270E0
3.289144421E0,-3.557783842E0,8.355764389E0,5.470750809E0
3.291139447E0,-4.089296341E0,9.255983353E0,6.512228489E0
3.292353652E0,-5.676652431E0,1.035731697E1,8.334216118E0
3.295207139E0,-6.675034523E0,9.780313492E0,9.782708168E0
3.296496882E0,-5.803544998E0,7.989450932E0,1.114261436E1
3.299308947E0,-2.767697096E0,5.820304394E0,1.181299114E1
3.300682921E0,1.527500629E0,4.266467571E0,1.107318306E1
3.303411331E0,6.347028732E0,4.225766182E0,7.309497833E0
3.304702267E0,6.174646378E0,4.874594688E0,3.428496838E0
3.307514101E0,2.774879694E0,6.507440090E0,6.631938815E-1
3.309401729E0,-2.841917515E0,9.562441826E0,4.070142806E-1
3.311552793E0,-9.006986618E0,1.234210968E1,1.309628367E0
3.312996921E0,-1.297417927E1,1.363737297E1,1.637633920E0
3.315620408E0,-1.257913589E1,1.286404610E1,4.165911078E-1
3.317090690E0,-7.529764175E0,1.107078838E1,-1.817199111E0
3.319723024E0,-1.005564690E0,9.653421402E0,-3.550601006E0
3.321180652E0,3.186682463E0,8.497021675E0,-3.998316765E0
3.323826331E0,4.062960148E0,8.243236542E0,-2.968810081E0
3.325571690E0,3.043030262E0,9.023746490E0,-1.546654344E0
3.327929524E0,1.319205165E0,1.092713642E1,-5.985504389E-1
3.329652152E0,-8.283938169E-1,1.274672985E1,-1.268926859E-1
3.331738229E0,-2.473210335E0,1.378102493E1,7.637503147E-1
3.333238959E0,-2.521094322E0,1.384088039E1,2.657563925E0
3.335687536E0,-9.792284966E-1,1.188721180E1,3.756502390E0
3.337329805E0,8.547300100E-1,7.955932140E0,2.418143749E0
3.339860921E0,1.970427990E0,3.816357613E0,-8.236053586E-1
3.341533113E0,2.485181332E0,3.912125587E0,-1.963245392E0
3.343832498E0,1.738190413E0,9.038111687E0,1.144428372E0
3.345561882E0,-2.576161146E0,1.317529202E1,5.102043629E0
3.348403101E0,-9.902418137E0,1.216015053E1,7.244854450E0
3.349830959E0,-1.468603325E1,7.893682957E0,8.056488991E0
3.352093075E0,-1.238520527E1,6.248866558E0,1.071405220E1
3.353903152E0,-4.635174274E0,7.738059998E0,1.388636971E1
3.356380459E0,5.887341976E0,5.638344765E0,9.188945770E0
3.357924036E0,7.716512203E0,2.961627483E0,3.177105665E0
3.360319305E0,5.109226227E0,3.311181068E0,1.738190413E0
3.361980267E0,-7.661445439E-2,6.485892296E0,4.429273129E0
3.364469652E0,-6.069301128E0,9.837775230E0,7.010222435E0
3.366110652E0,-1.100375080E1,1.178665543E1,6.687005520E0
3.368944024E0,-1.317289734E1,1.325430107E1,5.329493046E0
3.370673421E0,-1.157596493E1,1.359188271E1,4.577713490E0
3.373019677E0,-6.916848660E0,1.255040550E1,4.860229492E0
3.374254652E0,-1.295263171E0,1.046745014E1,5.121197224E0
3.377087793E0,3.179499865E0,8.398859978E0,3.885789394E0
3.378392767E0,6.426037312E0,7.611167431E0,9.169792533E-1
3.381191370E0,9.222464561E0,7.565677166E0,-3.545812607E0
3.382420075E0,1.131739140E1,7.139509678E0,-8.128314972E0
3.385295177E0,1.145864964E1,6.299144745E0,-1.074996567E1
3.386695844E0,8.532935143E0,7.070077419E0,-9.967061996E0
3.389398216E0,1.714248419E0,1.052730465E1,-6.871358871E0
3.391455036E0,-1.413057804E1,1.747767258E1,-2.315192938E0
3.393437447E0,-1.910094070E1,1.856224632E1,-1.637633920E0
3.394625382E0,-2.478717041E1,1.711854172E1,-1.441309452E0
3.397505216E0,-2.217030716E1,1.324472427E1,-3.327940404E-1
3.398741421E0,-1.199973869E1,9.974244118E0,2.545036316E0
3.401608139E0,3.878606856E-1,7.484274387E0,5.918466568E0
3.402883459E0,9.502586365E0,5.001487255E0,7.879317760E0
3.405609382E0,1.255998230E1,2.827552319E0,8.765172005E0
3.407087113E0,1.070687008E1,2.059013367E0,9.892841339E0
3.409813946E0,5.159504890E0,3.624821424E0,1.275391293E1
3.411667498E0,1.819593310E0,6.275202751E0,1.524388218E1
3.413502882E0,-1.118092179E0,9.052476883E0,1.677138329E1
3.415241998E0,-4.144362926E0,9.962273598E0,1.554315758E1
3.417771421E0,-6.933608055E0,8.877699852E0,1.185369301E1
3.419314728E0,-8.173804283E0,8.216899872E0,7.807491779E0
3.421776998E0,-7.182605267E0,9.890447617E0,5.058948040E0
3.423586998E0,-4.824316502E0,1.222239971E1,2.075772762E0
3.425694613E0,-2.413355350E0,1.189678860E1,-2.671929121E0
3.427452382E0,4.979939461E-1,8.590395927E0,-8.549694061E0
3.430277216E0,4.388571739E0,5.602431774E0,-1.306276417E1
3.431627459E0,7.280767441E0,6.124367714E0,-1.472912884E1
3.433944498E0,5.068524837E0,1.024718285E1,-1.305079365E1
3.435757959E0,-2.762908697E0,1.524388218E1,-9.528923035E0
3.438197575E0,-1.235408115E1,1.808340454E1,-5.997475147E0
3.439873690E0,-1.843774796E1,1.718797493E1,-3.356670856E0
3.442309844E0,-1.798763657E1,1.397734928E1,-1.053448796E0
3.443875459E0,-1.064940929E1,1.134133339E1,2.240972757E0
3.446312767E0,1.448492050E0,9.466673851E0,5.430049419E0
3.448003651E0,1.226788998E1,6.883329868E0,7.242460251E0
3.450828216E0,1.633085060E1,2.568978310E0,7.314286232E0
3.452607882E0,1.271560478E1,-1.532289028E0,7.975085735E0
3.454912485E0,1.061828423E1,-1.364694983E-1,9.773131371E0
3.456263036E0,4.879383087E0,5.537788391E0,1.468842697E1
3.458979985E0,-8.291120529E0,1.252646351E1,1.867716789E1
3.460225228E0,-1.553836918E1,1.324232960E1,1.754471016E1
3.463082985E0,-1.736753845E1,1.210987186E1,1.544260120E1
3.464364113E0,-1.417127991E1,1.043153667E1,1.310585976E1
3.467185754E0,-8.130708694E0,8.327033043E0,9.385271072E0
3.468493305E0,-8.595184088E-1,6.155492783E0,3.610456228E0
3.471289331E0,6.394912720E0,3.873818398E0,-3.576937437E0
3.473106536E0,1.254801083E1,2.276885748E0,-1.050575733E1
3.475330754E0,1.512417221E1,3.945644379E0,-1.467406178E1
3.477093036E0,1.104445267E1,1.042195988E1,-1.389834118E1
3.479399523E0,-1.795651317E-1,1.831085396E1,-9.933543205E0
3.480809382E0,-1.333809757E1,2.185427284E1,-7.467514992E0
3.483503715E0,-2.169865036E1,2.021663857E1,-6.572083473E0
3.484745728E0,-2.154063225E1,1.674504662E1,-5.157110691E0
3.487531767E0,-1.328542519E1,1.375468922E1,-3.110068083E0
3.488905767E0,-1.711854219E0,1.105163479E1,-9.097966552E-1
3.491710562E0,8.324639320E0,7.630321026E0,1.067813993E0
3.493377728E0,1.511220074E1,3.878606856E-1,3.282450438E0
3.495302344E0,1.523191166E1,-1.146822572E0,4.378994942E0
3.497289421E0,1.312022495E1,-1.867477298E-1,8.291120529E0
3.499648805E0,7.757213593E0,5.023035049E0,1.341231823E1
3.501103190E0,-1.795651317E-1,1.028788471E1,1.741063499E1
3.503627882E0,-7.812280178E0,1.269884586E1,1.941458130E1
3.505252536E0,-1.194946098E1,1.201889229E1,1.937866783E1
3.507589344E0,-1.220803452E1,1.005325317E1,1.773385239E1
3.509434690E0,-9.904812813E0,7.908048153E0,1.406354046E1
3.512174254E0,-2.662352324E0,5.537788391E0,5.561730385E0
3.513612536E0,4.194641590E0,3.524264812E0,-1.843535304E0
3.515772190E0,1.007480049E1,2.023100376E0,-8.978256226E0
3.517419613E0,1.122162342E1,4.362235546E0,-1.207156467E1
3.519946036E0,5.319916248E0,1.094389629E1,-9.737217903E0
3.521630228E0,-5.681440830E0,1.721909904E1,-5.772420406E0
3.524003921E0,-1.583046150E1,1.924698830E1,-4.297592163E0
3.525682190E0,-1.966836739E1,1.827733612E1,-4.553771496E0
3.528121459E0,-1.547612000E1,1.689348793E1,-4.388571739E0
3.529860113E0,-5.829881191E0,1.502361584E1,-3.861847401E0
3.532609715E0,4.288015366E0,1.183693314E1,-2.722207308E0
3.534365382E0,1.152808094E1,6.387730122E0,-2.008735180E0
3.536678523E0,1.597890186E1,1.338358760E0,-1.716642618E0
3.538015882E0,1.690306473E1,8.044517636E-1,5.482721925E-1
3.540746638E0,1.276348972E1,4.766855717E0,5.149928093E0
3.541992151E0,4.216189384E0,9.816226959E0,1.011550236E1
3.544849331E0,-5.214571476E0,1.266053867E1,1.386961079E1
3.546170921E0,-1.159751320E1,1.334288597E1,1.661336517E1
3.548951369E0,-1.373314095E1,1.286404610E1,1.831803703E1
3.550225190E0,-1.233013916E1,1.072362900E1,1.710178185E1
3.553054100E0,-7.912836552E0,6.562506676E0,1.226788998E1
3.555017344E0,5.264849663E0,8.810662031E-1,2.466027737E0
3.557094523E0,1.040998936E1,2.585737705E-1,-6.272808313E-1
3.558334421E0,1.708502388E1,1.810016513E0,-5.068524837E0
3.561161754E0,1.410903072E1,6.845022678E0,-5.645527840E0
3.562588536E0,2.169146776E0,1.216733265E1,-3.497928619E0
3.565264946E0,-1.164779091E1,1.533007336E1,-1.819593310E0
3.566533382E0,-2.011368942E1,1.750879669E1,-5.123591423E-1
3.569259036E0,-1.915361404E1,1.945288849E1,7.398083210E-1
3.570816536E0,-1.148498535E1,1.757104683E1,-9.097966552E-2
3.573470446E0,-1.924938202E0,1.210029507E1,-1.563413739E0
3.575361536E0,7.484274387E0,4.560954094E0,-2.566584110E0
3.577042921E0,1.638591576E1,2.920926213E-1,-2.262520552E0
3.578952690E0,2.185187912E1,1.482010841E0,-2.394201700E-3
3.581285305E0,1.945767784E1,6.121973515E0,3.483563423E0
3.582911805E0,9.818621635E0,1.026873112E1,7.067683220E0
3.585343344E0,-5.530605912E-1,1.190875912E1,9.598354340E0
3.586989151E0,-7.000645638E0,1.381693840E1,1.324711800E1
3.589375382E0,-1.012747288E1,1.540668774E1,1.647210693E1
3.591222305E0,-1.105642319E1,1.324951267E1,1.468124485E1
3.593945484E0,-8.631096840E0,7.194576263E0,7.441178799E0
3.595307113E0,-6.584054828E-1,1.697489023E0,-7.445967197E-1
3.597585228E0,1.017775154E1,1.079784989E0,-5.947196960E0
3.599327498E0,1.593101788E1,4.783615112E0,-7.536946774E0
3.601777305E0,1.069489861E1,9.725247383E0,-5.796362400E0
3.603428190E0,-2.451662540E0,1.218648624E1,-3.287238836E0
3.605853267E0,-1.499488544E1,1.287122822E1,-1.082179189E0
3.607777728E0,-2.035310936E1,1.475307083E1,2.303221941E0
3.610001690E0,-1.828451920E1,1.777694702E1,5.671864033E0
3.611784998E0,-1.174595356E1,1.885673332E1,6.789956093E0
3.614483676E0,-4.400542736E0,1.416170311E1,4.314351559E0
3.616212228E0,7.872135162E0,1.862688899E0,1.628057212E-1
3.618558023E0,1.725022316E1,-7.781155705E-1,9.816226959E-1
3.619786074E0,2.220861435E1,2.509123325E0,4.338293552E0
3.622626253E0,1.797087860E1,7.769184589E0,7.960720539E0
3.624017574E0,7.455543995E0,9.897629738E0,8.449137688E0
3.626729061E0,-2.121262789E0,1.051054573E1,8.226476669E0
3.627989536E0,-7.594407558E0,1.293826580E1,1.101572227E1
3.630831369E0,-1.017056847E1,1.454238129E1,1.352245140E1
3.632148344E0,-1.028788471E1,1.131260300E1,1.030464458E1
3.634934023E0,-6.186617374E0,5.015852451E0,1.841141105E0
3.637393421E0,7.201758862E0,3.244143248E0,-8.583212852E0
3.639981907E0,1.218888092E1,8.283937454E0,-1.035492229E1
3.641572998E0,7.785943985E0,1.259110641E1,-8.995016098E0
3.644049253E0,-2.808398485E0,1.253604031E1,-7.254431248E0
3.645416613E0,-1.255998230E1,1.120246983E1,-5.185841084E0
3.648150946E0,-1.692700577E1,1.317289734E1,-6.727706790E-1
3.649519613E0,-1.579215431E1,1.756865120E1,4.101267338E0
3.652134113E0,-1.186566353E1,1.901474953E1,6.071695328E0
3.653592382E0,-7.534552574E0,1.290474701E1,4.151545525E0
3.656355369E0,-1.180341482E0,3.869029999E0,2.626439333E0
3.657984382E0,1.442985344E1,8.188169599E-1,7.431602001E0
3.659884882E0,1.879687691E1,2.712630510E0,9.902418137E0
3.661662421E0,2.079364204E1,7.113173485E0,1.325190639E1
3.664175767E0,1.416649151E1,7.852981567E0,1.245942593E1
3.665762651E0,6.275202751E0,7.455543995E0,1.031182671E1
3.668277344E0,1.625662923E0,1.012747288E1,1.213381386E1
3.669870344E0,-1.781286120E0,1.330457878E1,1.551203251E1
3.672253074E0,-5.181052685E0,1.167412758E1,1.389834118E1
3.674126767E0,-3.852270603E0,2.336740971E0,-1.103726983E0
3.676821984E0,2.090138197E0,2.324769735E0,-1.004128170E1
3.678319267E0,5.209783077E0,8.664615631E0,-1.326148319E1
3.680553690E0,8.906430602E-1,1.449210262E1,-1.245224285E1
3.682282844E0,-8.020575523E0,1.558864689E1,-1.086009884E1
3.684886151E0,-1.626620674E1,1.402044487E1,-8.956708908E0
3.686525267E0,-2.002270889E1,1.382172680E1,-5.449203014E0
3.688604497E0,-1.768117905E1,1.711614799E1,-2.896983922E-1
3.690352113E0,-1.081460953E1,1.985750961E1,3.981557369E0
3.692757651E0,-3.035847664E0,1.480334949E1,3.464409828E0
3.694548074E0,4.333505154E0,4.175487995E0,6.416460276E-1
3.697261176E0,1.256237602E1,-2.121262789E0,1.400607944E0
3.699091651E0,1.999637222E1,1.508347094E-1,7.182605267E0
3.701336368E0,2.027170563E1,6.378153324E0,1.393425369E1
3.702584074E0,1.168849277E1,9.543288231E0,1.682166100E1
3.705404215E0,1.156399369E0,8.995016098E0,1.504516315E1
3.706609921E0,-5.413290024E0,9.342175484E0,1.420479870E1
3.709507368E0,-7.814674377E0,1.106599998E1,1.669955635E1
3.710753382E0,-7.228095055E0,9.387664795E0,1.657027054E1
3.713610215E0,-3.485957623E0,4.005499363E0,9.715670586E0
3.714876690E0,2.621650934E0,3.782838583E-1,-1.300051570E0
3.717713215E0,6.375759125E0,3.057395458E0,-1.055603504E1
3.719491344E0,-8.092401624E-1,1.339076996E1,-1.350329781E1
3.721753599E0,-5.451597214E0,1.517205620E1,-1.299812126E1
3.722952728E0,-1.381215000E1,1.567962646E1,-1.186566353E1
3.725821253E0,-1.861013031E1,1.521275806E1,-9.591172218E0
3.727056690E0,-1.899320221E1,1.615367889E1,-6.222530365E0
3.729924291E0,-1.469561005E1,1.833000755E1,-2.877830505E0
3.731269959E0,-3.500322819E0,1.367328548E1,-2.109291792E0
3.733864074E0,4.230554581E0,5.585672379E0,-3.260902643E0
3.735275497E0,1.066137981E1,9.121908545E-1,-1.326387763E0
3.738033561E0,1.557188797E1,3.332728863E0,5.030217648E0
3.739577651E0,1.558146477E1,8.444349289E0,1.301727486E1
3.741491305E0,9.854534149E0,9.356540680E0,1.672349930E1
3.743276228E0,2.894589901E0,7.723694801E0,1.702038002E1
3.745749651E0,-1.249773264E0,7.503427982E0,1.768836212E1
3.747353459E0,-2.726995707E0,7.781155586E0,1.873941612E1
3.749947497E0,-2.250549555E0,5.822698593E0,1.708981133E1
3.751526844E0,3.854664862E-1,1.936909199E0,1.030464458E1
3.753933574E0,3.299209833E0,6.751648784E-1,9.121908545E-1
3.755634536E0,1.968033791E0,5.446808815E0,-5.753266811E0
3.758455868E0,-5.614402771E0,1.246900272E1,-7.852981567E0
3.759867767E0,-1.532289124E1,1.580173111E1,-8.494627953E0
3.762017113E0,-2.188300323E1,1.584243298E1,-7.953537941E0
3.763839305E0,-2.281674194E1,1.569878101E1,-5.652710438E0
3.766219151E0,-1.791581154E1,1.702756310E1,-2.616862535E0
3.767812574E0,-9.308655739E0,1.813128853E1,-5.003881454E-1
3.770240382E0,1.292868853E-1,1.338837624E1,-2.011129379E0
3.771931613E0,8.614337921E0,4.762067318E0,-5.181052685E0
3.774420613E0,1.479616642E1,3.112462163E-2,-4.857835293E0
3.776138344E0,1.770272827E1,3.373430252E0,3.758896589E-1
3.778888599E0,1.508586502E1,1.109712505E1,7.965508938E0
3.780533190E0,2.111685991E0,1.329979038E1,1.225113010E1
3.782965714E0,-1.798045516E0,1.171004009E1,1.191594219E1
3.784155690E0,-5.789179802E0,9.437943459E0,1.309628296E1
3.787034714E0,-5.116408825E0,8.655038834E0,1.680490112E1
3.788276305E0,-1.685518026E0,6.258443356E0,1.786792755E1
3.791138099E0,2.827552319E0,2.152387381E0,1.293347740E1
3.792379920E0,6.143521786E0,-4.548983276E-2,3.912125587E0
3.795241407E0,1.891419291E0,5.827486992E0,-5.801150799E0
3.796490459E0,-7.177816868E0,1.201410389E1,-5.918466568E0
3.799344368E0,-1.590468216E1,1.439394093E1,-5.137956619E0
3.801123113E0,-2.086067963E1,1.434126854E1,-3.842693806E0
3.803387791E0,-2.136346245E1,1.456153488E1,-2.190694571E0
3.804590651E0,-1.745133591E1,1.587834549E1,-8.068459630E-1
3.807455868E0,-1.073320580E1,1.525585365E1,-9.888052940E-1
3.808688344E0,-2.533065319E0,9.928754807E0,-3.481169224E0
3.811558983E0,5.281609058E0,4.216189384E0,-5.090072632E0
3.812801228E0,1.071644688E1,2.892195702E0,-3.157952070E0
3.815510920E0,1.228464890E1,6.964732647E0,1.833958507E0
3.816931959E0,9.416395187E0,1.137964058E1,6.897695065E0
3.819764214E0,4.232948780E0,1.256716442E1,9.732429504E0
3.821390459E0,2.130839527E-1,1.138682365E1,1.132217979E1
3.823317420E0,-1.276109457E0,8.695740700E0,1.246660805E1
3.825038151E0,2.154781483E-2,5.722142220E0,1.339795303E1
3.827764228E0,3.890577793E0,2.597708941E0,1.149695683E1
3.829145728E0,7.867346764E0,1.065419793E0,6.086060524E0
3.831613459E0,7.350199223E0,2.291250944E0,-8.092401624E-1
3.833239613E0,-1.436521020E-2,5.954379559E0,-5.904101372E0
3.835605767E0,-1.115219116E1,1.041477776E1,-6.852205276E0
3.837357228E0,-2.030282974E1,1.349850941E1,-5.396530628E0
3.840219829E0,-2.467464256E1,1.560061836E1,-2.612074137E0
3.841571459E0,-2.437297249E1,1.695094872E1,-1.604115069E-1
3.843844074E0,-1.910333443E1,1.696531296E1,5.123591423E-1
3.845576228E0,-9.454702377E0,1.397974396E1,-7.182605267E-1
3.848051882E0,8.013393402E0,5.145139217E0,-3.473986626E0
3.849660497E0,1.628057098E1,2.066195965E0,-2.647987127E0
3.852112113E0,1.866759109E1,3.811569214E0,1.007958889E0
3.853811920E0,1.485362720E1,8.243236542E0,5.767632008E0
3.856310113E0,7.283161640E0,1.079066753E1,9.097966194E0
3.857904613E0,-9.816227108E-2,1.203804588E1,1.179862595E1
3.860756791E0,-4.855441093E0,1.152329254E1,1.439154625E1
3.862384690E0,-5.753266811E0,7.829039574E0,1.450646782E1
3.864829945E0,-2.025494576E0,3.303998232E0,1.224873543E1
3.866025997E0,5.135562420E0,9.528923035E-1,7.613561630E0
3.868898445E0,1.004128170E1,2.298433542E0,1.474828243E0
3.870134882E0,6.909666061E0,6.220136166E0,-3.866635799E0
3.873002022E0,-3.394978046E0,1.022324085E1,-6.490680695E0
3.874333267E0,-1.472912884E1,1.294305420E1,-6.361393929E0
3.877105368E0,-2.226368141E1,1.500925064E1,-3.840299606E0
3.878375228E0,-2.465788269E1,1.703474426E1,-3.519476354E-1
3.881207637E0,-2.185187912E1,1.805228043E1,1.675941229E0
3.883066228E0,-9.263166428E0,1.301248646E1,-7.422025502E-2
3.885255098E0,-3.505111217E0,9.409213066E0,-1.604115129E0
3.886475690E0,8.109161377E0,2.667140722E0,-3.703830004E0
3.889322791E0,1.673307610E1,6.727706790E-1,-2.422932148E0
3.890559574E0,1.945288849E1,5.226542473E0,2.650381327E0
3.893425175E0,1.535641003E1,1.181059742E1,7.776367188E0
3.894660959E0,6.751648903E0,1.459026527E1,9.552865028E0
3.897526983E0,-1.635239720E0,1.404678154E1,1.029027843E1
3.898813805E0,-6.224924564E0,1.165018559E1,1.276588345E1
3.901628598E0,-3.268085241E0,6.251260757E0,1.607467079E1
3.903317497E0,3.172317266E0,2.664746523E0,1.275391293E1
3.905228651E0,8.073247910E0,1.144428372E0,4.517858505E0
3.906998267E0,6.476315498E0,3.857059002E0,-3.141192675E0
3.909372074E0,-1.448492050E0,8.695740700E0,-6.308721542E0
3.911044536E0,-1.134372807E1,1.225113010E1,-5.698200226E0
3.913472767E0,-1.880645370E1,1.453040981E1,-2.513911724E0
3.915237805E0,-2.197637749E1,1.565329075E1,4.141969085E-1
3.917477036E0,-2.048000145E1,1.600523758E1,1.501164436E0
3.919218420E0,-1.491108799E1,1.544260120E1,1.357512355E0
3.922083983E0,-5.588066578E0,1.128866100E1,-8.762778044E-1
3.923409613E0,5.535394192E0,5.980715752E0,-3.478775024E0
3.925754651E0,1.418325043E1,3.514688015E0,-3.677493811E0
3.927479536E0,1.678574753E1,5.693411827E0,-4.022258818E-1
3.929937882E0,1.315853214E1,1.026873112E1,4.302380562E0
3.931656343E0,6.366182327E0,1.306755257E1,7.091625214E0
3.934003536E0,1.221042871E-1,1.383369732E1,8.583212852E0
3.935695459E0,-4.283226967E0,1.220803452E1,1.080024433E1
3.938157190E0,-5.317522049E0,8.283937454E0,1.326148319E1
3.939815690E0,-1.391031146E0,3.562572241E0,1.349132633E1
3.942625021E0,5.916072369E0,3.878606856E-1,9.478644371E0
3.944372536E0,9.471462250E0,2.209848166E0,-6.727706790E-1
3.946706098E0,6.766014099E0,4.170699596E0,-3.232172251E0
3.947926651E0,-2.413355350E0,8.202534676E0,-5.702988625E0
3.950774098E0,-1.597171974E1,1.266772079E1,-3.349488258E0
3.952023690E0,-2.087025642E1,1.495418358E1,-4.405331016E-1
3.954876791E0,-2.185906219E1,1.602199745E1,5.626373887E-1
3.956134843E0,-1.860055351E1,1.550006199E1,-2.059013397E-1
3.958979406E0,-1.062546730E1,1.209550667E1,-2.762908697E0
3.960492920E0,3.256114423E-1,7.192182064E0,-5.781997204E0
3.963082175E0,1.046026707E1,3.727771997E0,-7.623138428E0
3.964921074E0,1.562695408E1,4.158728123E0,-6.646304131E0
3.967123367E0,1.399410915E1,8.432378769E0,-1.802833915E0
3.968338343E0,7.982268333E0,1.257674122E1,3.919308186E0
3.971191329E0,1.604115129E0,1.457590008E1,7.893682957E0
3.972462959E0,-3.457227230E0,1.320881081E1,1.045547867E1
3.975293290E0,-5.497087002E0,7.781155586E0,1.145864964E1
3.976572728E0,-1.855506301E0,2.085349798E0,1.141076565E1
3.979394983E0,6.394912720E0,5.386953950E-1,1.021127033E1
3.980807728E0,1.234210968E1,2.578555346E0,5.552153587E0
3.983497252E0,9.097966194E0,5.363011837E0,-1.450886250E0
3.985089690E0,-1.312022567E0,7.558494568E0,-6.476315498E0
3.987001343E0,-1.194946098E1,9.579200745E0,-6.452373505E0
3.988818805E0,-1.843295860E1,1.300290966E1,-1.572990537E0
3.991244997E0,-2.064999008E1,1.607945824E1,2.985569477E0
3.992899459E0,-1.977131844E1,1.609382439E1,3.122039080E0
3.995325651E0,-1.571314621E1,1.263899040E1,-1.436520964E-1
3.997073497E0,-7.206547260E0,7.991845131E0,-3.591302633E0
3.999338305E0,3.746925592E0,5.588066578E0,-4.953603268E0
4.001084305E0,1.255758762E1,5.877765179E0,-4.908113480E0
4.003951367E0,1.495418358E1,8.475474358E0,-3.083731890E0
4.005374766E0,8.908824921E0,1.261983681E1,2.195482969E0
4.007483305E0,4.369418144E0,1.454238129E1,5.504269600E0
4.009179382E0,2.451662540E0,1.493263626E1,7.091625214E0
4.011630613E0,-1.733402014E0,1.009156036E1,9.500192642E0
4.013292843E0,-1.604115069E-1,5.099649429E0,9.727641106E0
4.015722651E0,5.640739441E0,2.906560898E0,8.599972725E0
4.017436574E0,9.751583099E0,4.321534157E0,5.279214859E0
4.019901459E0,6.186617374E0,6.708553314E0,6.823474765E-1
4.021551843E0,-3.253720045E0,8.125920296E0,-2.351106167E0
4.024361944E0,-1.204522896E1,1.002212811E1,-4.596867263E-1
4.026249882E0,-1.678814316E1,1.315613842E1,4.860229492E0
4.028427790E0,-1.838746834E1,1.535162163E1,8.535328865E0
4.029696805E0,-1.723346329E1,1.501643276E1,7.766790390E0
4.032496059E0,-1.230859089E1,1.235168648E1,4.309563160E0
4.033744613E0,-3.004723072E0,8.621520042E0,1.065419793E0
4.036598790E0,7.184999466E0,5.973533154E0,-7.469909191E-1
4.037951959E0,1.290235329E1,5.609614372E0,-1.252167463E0
4.040701098E0,1.175553036E1,8.643068314E0,3.926490843E-1
4.041991997E0,6.291962147E0,1.309388924E1,3.426102638E0
4.044803482E0,7.206547260E-1,1.620395660E1,5.702988625E0
4.046637882E0,-4.795586109E0,1.496136665E1,7.726089001E0
4.048842482E0,-5.346252441E0,1.231337929E1,7.790732384E0
4.050085728E0,-2.619256735E0,6.258443356E0,7.759607792E0
4.052909906E0,5.219359875E0,2.240972757E0,6.868964672E0
4.054197613E0,1.297178459E1,1.599326730E0,2.985569477E0
4.057012598E0,1.246181965E1,4.146757126E0,-2.377442360E0
4.058390305E0,3.110068083E0,7.920019150E0,-5.951985359E0
4.060985459E0,-8.295908928E0,1.083855152E1,-6.361393929E0
4.062394805E0,-1.667800903E1,1.346738434E1,-2.731784105E0
4.065218944E0,-2.170583344E1,1.591904736E1,3.562572241E0
4.066867536E0,-2.031719589E1,1.510501862E1,3.557783842E0
4.068716266E0,-1.429098988E1,1.128387260E1,2.873041928E-1
4.070518728E0,-3.955221176E0,6.538564682E0,-3.234566450E0
4.073000766E0,6.806715488E0,3.878606796E0,-4.359841347E0
4.074616536E0,1.289517021E1,3.766079187E0,-3.916913986E0
4.076986420E0,1.176510715E1,6.940790653E0,-1.443703651E0
4.078812574E0,6.210559368E0,1.142991924E1,2.717418909E0
4.081070228E0,9.648633003E-1,1.475785923E1,6.088454723E0
4.082833574E0,-2.703053713E0,1.528218937E1,8.688557625E0
4.085625752E0,-4.718971729E0,1.004128170E1,8.652645111E0
4.086990113E0,-2.063801765E0,2.427720547E0,6.545747280E0
4.089380497E0,5.556941986E0,-4.261679053E-1,5.209783077E0
4.091072920E0,1.238520527E1,2.628833532E0,3.081337690E0
4.093459843E0,1.019929886E1,7.120356083E0,-1.716642618E0
4.095098305E0,-1.089361787E0,9.160215378E0,-7.498639584E0
4.097475382E0,-1.325430107E1,9.828198433E0,-9.866505623E0
4.099332497E0,-2.005862236E1,1.266772079E1,-5.650316238E0
4.101655343E0,-2.106179237E1,1.679771996E1,1.316810966E0
4.103323151E0,-1.888546371E1,1.774582291E1,4.304774761E0
4.106161982E0,-1.483686829E1,1.323275280E1,1.383848548E0
4.107827689E0,-1.630451322E0,5.406107426E0,-4.663905144E0
4.110236982E0,3.933673382E0,4.687847137E0,-4.953603268E0
4.111572420E0,1.284249783E1,5.729324818E0,-3.620033026E0
4.114304636E0,1.478898430E1,8.422801971E0,-7.206547260E-1
4.115566343E0,1.005804157E1,1.121922874E1,2.849100113E0
4.118406751E0,1.450886250E0,1.436999893E1,7.623138428E0
4.119650074E0,-2.288856745E0,1.403481007E1,1.027351952E1
4.122508674E0,-4.153939724E0,9.411606789E0,1.101332760E1
4.123732689E0,-1.826775908E0,4.149151325E0,1.053927612E1
4.126611213E0,4.829104900E0,2.741360903E0,9.373299599E0
4.128454805E0,9.701305389E0,4.824316502E0,5.997475147E0
4.130659174E0,6.363788128E0,6.607996464E0,5.171475410E-1
4.131857228E0,-3.155557871E0,7.254431248E0,-3.615244627E0
4.134727598E0,-1.140118885E1,9.174580574E0,-2.473210335E0
4.136005266E0,-1.509304714E1,1.328781986E1,2.796427488E0
4.138829982E0,-1.609621811E1,1.643858910E1,7.129932880E0
4.140078920E0,-1.594059467E1,1.492066479E1,6.459556103E0
4.142881997E0,-1.227986050E1,9.612719536E0,2.051830769E0
4.144235228E0,-3.426102638E0,5.772420406E0,-1.268926859E0
4.147034751E0,6.722918510E0,5.046977043E0,-2.183511972E0
4.148579420E0,1.196621990E1,5.983109951E0,-2.329558372E0
4.150565113E0,9.847352028E0,8.341399193E0,-1.412579060E0
4.152339036E0,4.474762917E0,1.176271248E1,1.108515382E0
4.154794843E0,2.729389966E-1,1.527500725E1,4.072536945E0
4.156403651E0,-2.427720547E0,1.507868195E1,6.042964935E0
4.158871382E0,-3.157952070E0,8.734047890E0,5.240907669E0
4.160525228E0,1.259350061E0,1.733402014E0,3.804386616E0
4.162892959E0,1.000058079E1,5.195417404E-1,3.706224203E0
4.164651843E0,1.601960373E1,3.979163170E0,1.805228114E0
4.167510059E0,1.197100830E1,6.299144745E0,-3.603273630E0
4.168832997E0,-5.674258232E0,6.634333134E0,-9.919178009E0
4.171219343E0,-1.411142445E1,1.017056847E1,-6.021417141E0
4.172853305E0,-1.770751572E1,1.610340118E1,1.137245774E0
4.175305536E0,-1.939542770E1,1.924219894E1,5.018246651E0
4.176944343E0,-1.966597366E1,1.523191166E1,2.432508945E0
4.179316189E0,-1.400847435E1,7.965508938E0,-3.062183857E0
4.181076459E0,-2.865859509E0,4.596867085E0,-4.544194698E0
4.183537997E0,7.649474621E0,5.489904404E0,-2.133233786E0
4.185206228E0,1.198058510E1,7.438784599E0,5.363011956E-1
4.188052751E0,9.598354340E0,8.650250435E0,1.996764183E0
4.189820074E0,5.027823448E0,1.041238308E1,4.079719543E0
4.192133367E0,1.881842494E0,1.261983681E1,7.175422668E0
4.193336151E0,7.996633649E-1,1.045547867E1,8.224082947E0
4.196201520E0,3.277662039E0,3.821146011E0,5.736507416E0
4.197446151E0,9.531316757E0,1.101332754E-1,3.586514235E0
4.200305520E0,1.503079796E1,3.502717018E0,3.062183857E0
4.201582920E0,1.283292103E1,8.793902397E0,2.825157940E-1
4.204409405E0,1.958456993E0,9.799467087E0,-6.028599739E0
4.205682612E0,-1.097262669E1,8.956708908E0,-1.041717148E1
4.208512905E0,-1.945288849E1,1.137245846E1,-7.826645374E0
4.210290882E0,-2.156457520E1,2.051351929E1,2.992752075E0
4.212553866E0,-2.076969910E1,2.125093460E1,4.668693542E0
4.213733728E0,-1.726458931E1,1.553836918E1,2.442085743E0
4.216622328E0,-9.078812599E0,6.756437302E0,-1.987187386E0
4.217882074E0,3.464409828E0,2.523488522E0,-2.583343744E0
4.220725674E0,1.438915253E1,3.452438831E0,2.849099934E-1
4.222035305E0,1.775061226E1,6.763619900E0,3.983951569E0
4.224776151E0,1.079066753E1,1.008916569E1,6.639121532E0
4.226111459E0,5.506663799E0,1.215296745E1,7.359776020E0
4.228932597E0,1.527500629E0,1.106121159E1,7.302315235E0
4.230557574E0,5.267243981E-1,5.303156853E0,5.116408825E0
4.232427574E0,4.831499100E0,1.630451322E0,3.605667830E0
4.234315574E0,1.143231297E1,5.300762653E0,3.761290789E0
4.236680882E0,1.273475838E1,1.134612179E1,9.241618514E-1
4.238435074E0,5.284003258E0,1.266532707E1,-6.363788128E0
4.240785766E0,-5.497087002E0,1.083376312E1,-1.221761131E1
4.242449843E0,-1.290235329E1,1.098699188E1,-1.122401714E1
4.244801497E0,-1.466209126E1,1.571314621E1,-4.163516521E0
4.246604843E0,-1.329260826E1,2.092771721E1,3.215412855E0
4.249392482E0,-1.159511852E1,1.803073311E1,3.983951569E0
4.250977305E0,-7.800309181E0,9.782708168E0,4.525041282E-1
4.252949497E0,9.576806799E-3,5.961562157E0,1.604115069E-1
4.254641805E0,8.655038834E0,7.570465565E0,3.878606796E0
4.257163459E0,1.236605167E1,1.025436592E1,8.097189903E0
4.258764497E0,9.406818390E0,1.073560047E1,1.126711273E1
4.261171651E0,4.326322556E0,1.113543224E1,1.443464184E1
4.262869420E0,8.164227605E-1,1.253604031E1,1.848084259E1
4.265308997E0,-1.139639974E0,1.035492229E1,2.010890007E1
4.266980920E0,-3.351882473E-2,3.804386616E0,1.770751572E1
4.269827328E0,6.071695328E0,-6.129156351E-1,1.416649151E1
4.271479151E0,1.393185997E1,3.483563423E0,8.836998940E0
4.273895097E0,1.193030739E1,5.430049419E0,5.973533154E0
4.275271728E0,1.235408068E0,6.804321289E0,-1.426944256E0
4.277962405E0,-1.109233665E1,7.242460251E0,-7.726089001E0
4.279387536E0,-2.221819115E1,1.473152351E1,-5.930437565E0
4.282064135E0,-2.510559845E1,2.202426147E1,-1.900996208E0
4.283350689E0,-2.461478806E1,2.247676468E1,-3.430891037E0
