"Time (s)","Gyroscope x (rad/s)","Gyroscope y (rad/s)","Gyroscope z (rad/s)"
8.129423000E-3,3.174487948E-1,-1.283643693E-1,1.022653878E-1
1.035246200E-2,3.174487948E-1,-1.283643693E-1,1.022653878E-1
1.202823100E-2,3.174487948E-1,-1.283643693E-1,1.022653878E-1
1.479007500E-2,3.174487948E-1,-1.283643693E-1,1.022653878E-1
1.662396200E-2,3.174487948E-1,-1.283643693E-1,1.022653878E-1
1.887330600E-2,3.174487948E-1,-1.283643693E-1,1.022653878E-1
2.024196200E-2,3.174487948E-1,-1.283643693E-1,1.022653878E-1
2.294165200E-2,3.174487948E-1,-1.283643693E-1,1.022653878E-1
2.419007700E-2,3.174487948E-1,-1.283643693E-1,1.022653878E-1
2.704515200E-2,3.174487948E-1,-1.283643693E-1,1.022653878E-1
2.826992300E-2,3.174487948E-1,-1.283643693E-1,1.022653878E-1
3.114803600E-2,3.174487948E-1,-1.283643693E-1,1.022653878E-1
3.241192300E-2,3.174487948E-1,-1.283643693E-1,1.022653878E-1
3.525099800E-2,3.174487948E-1,-1.283643693E-1,1.022653878E-1
3.708503900E-2,3.174487948E-1,-1.283643693E-1,1.022653878E-1
3.929357500E-2,3.174487948E-1,-1.283643693E-1,1.022653878E-1
4.051130800E-2,3.984089196E-1,1.304948926E-1,9.321063757E-2
4.336203600E-2,3.946804702E-1,2.167813182E-1,3.781688958E-2
4.467142300E-2,3.265035450E-1,2.370213419E-1,-2.343581803E-2
4.746422900E-2,1.976065636E-1,1.960086524E-1,-6.231797114E-2
4.870100000E-2,1.810949668E-2,1.161138266E-1,-6.870955974E-2
5.143280800E-2,-1.581917703E-1,-4.793690052E-3,-4.580637068E-2
5.282665400E-2,-2.902845740E-1,-1.438107044E-1,-1.757686399E-2
5.566826700E-2,-3.387540877E-1,-2.476739883E-1,-1.171790902E-2
5.733661500E-2,-3.014698327E-1,-2.801645398E-1,-2.024002373E-2
5.926926900E-2,-2.189118415E-1,-2.050634027E-1,-2.663161233E-2
6.104546200E-2,-1.278317273E-1,-4.527373984E-2,-2.609897964E-2
6.346903900E-2,-6.178534031E-2,1.422128081E-1,-6.924218964E-3
6.516069200E-2,-3.089267015E-2,3.030677438E-1,0.000000000E0
6.754615400E-2,-2.769687586E-2,3.504720032E-1,-1.331580617E-2
6.920057700E-2,-3.675162420E-2,2.503371537E-1,-3.302319720E-2
7.155807700E-2,-4.687163606E-2,5.699164793E-2,-5.539375171E-2
7.330215400E-2,-3.728425503E-2,-1.560612470E-1,-5.592638254E-2
7.613072800E-2,5.326322280E-4,-3.249056637E-1,-2.396845073E-2
7.758630800E-2,7.297061384E-2,-3.589941263E-1,2.876213938E-2
7.969200000E-2,1.565938741E-1,-2.668487430E-1,9.161274135E-2
8.138776900E-2,2.311623842E-1,-7.403588295E-2,1.422128081E-1
8.385146200E-2,2.652508616E-1,1.454086006E-1,1.603222936E-1
8.552053900E-2,2.450108230E-1,3.020024598E-1,1.400822699E-1
8.791184600E-2,1.810949594E-1,3.281014562E-1,8.042746782E-2
8.964330800E-2,4.846953228E-2,1.177117229E-1,-4.953479767E-2
9.206473100E-2,-3.994741663E-2,-7.936219871E-2,-1.283643693E-1
9.373150000E-2,-1.155811921E-1,-1.933455020E-1,-1.699096859E-1
9.656503600E-2,-1.853560209E-1,-1.960086524E-1,-1.443433315E-1
9.822634600E-2,-2.316950262E-1,-9.800432622E-2,-6.072007492E-2
1.006426130E-1,-2.503371537E-1,1.757686399E-2,4.207794741E-2
1.019076150E-1,-2.306297570E-1,1.022653878E-1,1.182443574E-1
1.047110360E-1,-1.885518134E-1,1.171790883E-1,1.262338310E-1
1.059868460E-1,-1.422128081E-1,5.912217870E-2,7.350324839E-2
1.088144210E-1,-1.001348570E-1,-2.769687586E-2,-1.544633508E-2
1.101702690E-1,-5.166532472E-2,-9.693906456E-2,-9.800432622E-2
1.129173440E-1,6.391586736E-3,-1.459412277E-1,-1.155811921E-1
1.143454620E-1,9.054747969E-2,-1.533980817E-1,-6.498113275E-2
1.170207670E-1,2.013349831E-1,-1.113201380E-1,2.290318534E-2
1.188558460E-1,3.579288721E-1,3.195793368E-3,1.427454352E-1
1.210604970E-1,3.920173049E-1,5.060006306E-2,1.592570394E-1
1.222925770E-1,4.074636400E-1,1.390170157E-1,1.438107044E-1
1.251288050E-1,3.552657068E-1,1.890844405E-1,7.084008306E-2
1.264680380E-1,2.423476577E-1,1.805623323E-1,-1.917476021E-2
1.292319590E-1,8.309062570E-2,1.182443574E-1,-9.108011425E-2
1.304995000E-1,-1.075917110E-1,4.261057824E-2,-1.198422536E-1
1.332394620E-1,-2.854908705E-1,-3.834952042E-2,-1.054611802E-1
1.346355000E-1,-4.101268053E-1,-1.059938148E-1,-6.391586363E-2
1.374381510E-1,-4.516721368E-1,-1.597896665E-1,-2.663161233E-2
1.392058850E-1,-3.568635881E-1,-1.709749401E-1,-2.130528912E-3
1.410303850E-1,-2.950782478E-1,-1.454086006E-1,-4.261057824E-3
1.427816920E-1,-1.661812514E-1,-5.645901710E-2,-1.012001187E-2
1.452969620E-1,-3.089267015E-2,1.145159304E-1,-7.989482954E-3
1.468693080E-1,3.728425596E-3,2.332929224E-1,-1.864212751E-2
1.493728850E-1,1.012001187E-2,2.364887148E-1,-2.556634694E-2
1.509615380E-1,2.450108156E-2,1.496696621E-1,-3.994741663E-2
1.534064620E-1,5.592638254E-2,-5.326322280E-3,-5.219795927E-2
1.550745000E-1,1.054611802E-1,-1.810949594E-1,-3.355583176E-2
1.579021130E-1,1.709749401E-1,-2.892192900E-1,9.587380104E-3
1.594396920E-1,2.386192381E-1,-2.732403278E-1,6.125270575E-2
1.615781150E-1,2.886866629E-1,-1.470064968E-1,1.107875034E-1
1.633182310E-1,3.094593287E-1,1.970739290E-2,1.486043930E-1
1.657200380E-1,2.860234976E-1,1.651159972E-1,1.502022892E-1
1.674238080E-1,2.258360684E-1,2.306297570E-1,1.107875034E-1
1.697977310E-1,1.363538504E-1,1.986718178E-1,4.101268202E-2
1.715295380E-1,3.568635881E-2,7.137271762E-2,-3.675162420E-2
1.739845770E-1,-6.977482140E-2,-6.285060197E-2,-1.091896072E-1
1.756371920E-1,-1.587243974E-1,-1.209075153E-1,-1.549959779E-1
1.784437660E-1,-2.364887148E-1,-1.145159304E-1,-1.427454352E-1
1.801624620E-1,-3.163835406E-1,-2.343581803E-2,-2.822950855E-2
1.825194590E-1,-3.227751255E-1,8.522115648E-3,1.491370238E-2
1.837620000E-1,-3.137203753E-1,5.113269389E-2,7.829693705E-2
1.865873820E-1,-2.769687474E-1,5.539375171E-2,8.202536404E-2
1.878576540E-1,-2.258360684E-1,5.858954508E-3,3.515372798E-2
1.906907660E-1,-1.661812514E-1,-5.060006306E-2,-3.941478580E-2
1.919581920E-1,-9.108011425E-2,-8.681905270E-2,-1.043959185E-1
1.947937280E-1,5.379585549E-2,-1.315601617E-1,-7.776430249E-2
1.960933460E-1,1.752360016E-1,-1.043959185E-1,-3.728425596E-3
1.988967280E-1,2.924150825E-1,-5.752427876E-2,8.362326026E-2
2.008383850E-1,3.834952116E-1,3.728425596E-3,1.358212233E-1
2.029443050E-1,4.319647253E-1,7.350324839E-2,1.235706806E-1
2.043713850E-1,4.308994710E-1,1.315601617E-1,4.793690145E-2
2.070129590E-1,3.627225459E-1,1.518001854E-1,-4.101268202E-2
2.083808460E-1,2.332929224E-1,1.320927888E-1,-9.747169912E-2
2.111156890E-1,6.285060197E-2,1.022653878E-1,-1.118527651E-1
2.124076150E-1,-1.203748807E-1,4.207794741E-2,-8.415589482E-2
2.151891150E-1,-2.705771625E-1,-4.261057824E-2,-3.515372798E-2
2.165700000E-1,-3.531351686E-1,-1.352885813E-1,-1.597896684E-3
2.193219200E-1,-3.579288721E-1,-1.954760253E-1,3.195793368E-3
2.210282690E-1,-3.046656251E-1,-2.125202566E-1,-7.989482954E-3
2.229136150E-1,-2.221076339E-1,-1.374191195E-1,-2.450108156E-2
2.247251150E-1,-1.470064968E-1,-2.130528912E-3,-2.503371425E-2
2.273416920E-1,-1.017327532E-1,1.528654546E-1,-1.704423130E-2
2.288265000E-1,-7.829693705E-2,2.647182047E-1,-1.225054078E-2
2.313391150E-1,-6.018744037E-2,2.524676621E-1,-1.651159860E-2
2.328974230E-1,-3.142530099E-2,1.422128081E-1,-2.822950855E-2
2.355387310E-1,4.793690052E-3,-4.154531285E-2,-3.142530099E-2
2.370363850E-1,5.486112088E-2,-2.226402760E-1,-1.438106969E-2
2.398011510E-1,1.225054115E-1,-3.147856593E-1,1.757686399E-2
2.411473460E-1,2.226402760E-1,-2.364887148E-1,7.989483327E-2
2.435005000E-1,2.498045117E-1,-1.592570394E-1,1.006674916E-1
2.452356540E-1,2.748382390E-1,1.150485575E-1,1.219727769E-1
2.478176150E-1,2.476739883E-1,2.364887148E-1,1.022653878E-1
2.493780380E-1,1.853560209E-1,2.593919039E-1,5.060006306E-2
2.517730770E-1,1.043959185E-1,1.539307088E-1,-1.757686399E-2
2.535527690E-1,2.024002373E-2,-3.195793368E-3,-9.054747969E-2
2.559828080E-1,-6.870955974E-2,-1.134506613E-1,-1.464738697E-1
2.575294610E-1,-1.549959779E-1,-1.432780623E-1,-1.512675583E-1
2.603439970E-1,-2.311623842E-1,-1.033306494E-1,-9.480853379E-2
2.621067310E-1,-2.828277051E-1,-3.195793182E-2,-4.793690052E-3
2.644251120E-1,-2.876214087E-1,3.142530099E-2,7.030745596E-2
2.656825000E-1,-2.615224123E-1,5.645901710E-2,9.001484513E-2
2.684928430E-1,-2.173139453E-1,3.781688958E-2,6.178534031E-2
2.701793850E-1,-1.651159972E-1,-2.609897964E-2,0.000000000E0
2.725956890E-1,-1.059938148E-1,-6.391586363E-2,-6.764429063E-2
2.741413850E-1,-2.609897964E-2,-1.097222418E-1,-8.735168725E-2
2.766981510E-1,6.977482140E-2,-1.496696621E-1,-4.420847446E-2
2.780026150E-1,1.842907518E-1,-1.464738697E-1,3.249056637E-2
2.808003050E-1,2.977414131E-1,-1.033306494E-1,9.960222989E-2
2.826929610E-1,4.218447208E-1,1.065264456E-3,1.129180342E-1
2.848411510E-1,4.394215941E-1,4.846953228E-2,9.054747969E-2
2.863546150E-1,4.191815555E-1,1.395496428E-1,1.597896591E-2
2.889088050E-1,3.355582952E-1,1.826928556E-1,-6.551376730E-2
2.901829610E-1,1.960086524E-1,1.672465205E-1,-1.139832959E-1
2.930116510E-1,2.077265643E-2,1.193096191E-1,-1.177117229E-1
2.943520000E-1,-1.645833552E-1,3.036003746E-2,-8.309062570E-2
2.970270000E-1,-3.131877482E-1,-7.723167539E-2,-3.728425503E-2
2.984188080E-1,-4.090615511E-1,-2.103897333E-1,-6.391586736E-3
3.012164580E-1,-3.739078343E-1,-2.514024079E-1,-9.054748341E-3
3.029290770E-1,-2.892192900E-1,-1.917476058E-1,-2.024002373E-2
3.047568850E-1,-1.949433982E-1,-5.912217870E-2,-2.130528912E-2
3.065464230E-1,-1.219727769E-1,1.054611802E-1,-5.326322280E-3
3.090300770E-1,-7.989483327E-2,2.530003190E-1,2.663161140E-3
3.106250000E-1,-5.379585549E-2,3.004045784E-1,-3.195793368E-3
3.131629230E-1,-2.290318534E-2,2.066612989E-1,-1.864212751E-2
3.147509610E-1,2.130528912E-2,1.810949668E-2,-3.994741663E-2
3.171387690E-1,8.628641814E-2,-2.013349831E-1,-3.728425503E-2
3.190054230E-1,1.603222936E-1,-3.467435837E-1,-7.456851192E-3
3.216771510E-1,2.338255495E-1,-3.520699143E-1,4.261057824E-2
3.232581920E-1,2.924150825E-1,-2.434129268E-1,1.065264493E-1
3.254003080E-1,3.328951299E-1,-5.326322466E-2,1.400822699E-1
3.273082310E-1,3.366235793E-1,1.251685768E-1,1.416801661E-1
3.295726920E-1,2.982740402E-1,2.428802997E-1,9.906959534E-2
3.310844230E-1,2.141181529E-1,2.359560728E-1,3.089267015E-2
3.334441920E-1,1.017327532E-1,1.246359423E-1,-4.420847446E-2
3.352463460E-1,-2.130528912E-2,-1.917476021E-2,-1.150485575E-1
3.375757310E-1,-1.384843737E-1,-1.246359423E-1,-1.635181010E-1
3.393568460E-1,-2.338255495E-1,-1.608549356E-1,-1.619201899E-1
3.420082660E-1,-3.099919558E-1,-1.182443574E-1,-1.059938148E-1
3.436427310E-1,-3.589941263E-1,5.326322280E-3,3.089267015E-2
3.460864200E-1,-3.557983339E-1,4.527373984E-2,6.924218684E-2
3.473283840E-1,-3.307646215E-1,8.575379103E-2,1.091896072E-1
3.501541120E-1,-2.833603323E-1,5.166532472E-2,9.853696078E-2
3.516545770E-1,-2.135855258E-1,-2.237055451E-2,3.675162420E-2
3.542569970E-1,-1.246359423E-1,-8.948221803E-2,-4.367584363E-2
3.555377690E-1,-1.864212751E-2,-1.560612470E-1,-8.255799860E-2
3.583596890E-1,1.001348570E-1,-1.805623323E-1,-6.285060197E-2
3.596403080E-1,2.945456207E-1,-1.139832959E-1,4.846953228E-2
3.624629580E-1,4.170510471E-1,-4.261057824E-2,1.166464612E-1
3.643979230E-1,5.091964006E-1,3.195793182E-2,1.336906850E-1
3.665051120E-1,5.374259353E-1,9.747169912E-2,8.948221803E-2
3.677940770E-1,4.878911078E-1,1.454086006E-1,4.261057824E-3
3.705734200E-1,3.600593805E-1,1.496696621E-1,-7.137271762E-2
3.718395000E-1,1.704423130E-1,1.331580579E-1,-1.150485575E-1
3.746766120E-1,-5.592638254E-2,8.362326026E-2,-1.155811921E-1
3.759448080E-1,-2.737729549E-1,1.491370238E-2,-8.468852192E-2
3.786773840E-1,-4.372910559E-1,-8.522115648E-2,-4.207794741E-2
3.800856920E-1,-5.150553584E-1,-1.789644361E-1,-1.864212751E-2
3.828826500E-1,-5.081311464E-1,-2.226402760E-1,-1.491370238E-2
3.846505000E-1,-4.356931746E-1,-2.055960447E-1,-1.065264456E-2
3.864278840E-1,-3.286340833E-1,-1.012001261E-1,-1.384843793E-2
3.882501150E-1,-2.221076339E-1,5.752427876E-2,-7.456851192E-3
3.906959610E-1,-1.379517466E-1,2.034655064E-1,5.858954508E-3
3.923343460E-1,-7.936219871E-2,2.812298238E-1,1.651159860E-2
3.947883840E-1,-3.408846259E-2,2.503371537E-1,1.278317347E-2
3.964231540E-1,2.556634694E-2,1.059938148E-1,2.130528912E-3
3.988098840E-1,9.374327213E-2,-9.321063757E-2,-5.858954508E-3
4.006174230E-1,1.778991669E-1,-2.764361203E-1,0.000000000E0
4.033611890E-1,2.599245310E-1,-3.472762108E-1,2.556634694E-2
4.048475380E-1,3.344930410E-1,-2.705771625E-1,5.752427876E-2
4.070506920E-1,3.760383427E-1,-9.587380290E-2,1.027980223E-1
4.088885380E-1,3.749730885E-1,9.960222989E-2,1.363538504E-1
4.112353080E-1,3.030677438E-1,2.769687474E-1,1.219727769E-1
4.128743840E-1,2.024002522E-1,2.364887148E-1,6.551376730E-2
4.152430380E-1,8.841694891E-2,9.214537591E-2,-1.544633508E-2
4.169659230E-1,-3.728425503E-2,-5.432848632E-2,-1.081243455E-1
4.194795000E-1,-1.581917703E-1,-1.448759735E-1,-1.645833552E-1
4.211519230E-1,-2.641855776E-1,-1.587243974E-1,-1.560612470E-1
4.239016500E-1,-3.446130455E-1,-9.427590668E-2,-8.149272949E-2
4.255825000E-1,-3.728425503E-1,-1.225054078E-2,1.810949668E-2
4.279751500E-1,-3.573962152E-1,5.858954415E-2,9.161274135E-2
4.292136540E-1,-3.089267015E-1,8.841694891E-2,1.049285457E-1
4.320441500E-1,-2.460760921E-1,6.391586363E-2,5.912217870E-2
4.333282690E-1,-1.778991669E-1,7.456851192E-3,-1.544633508E-2
4.361482270E-1,-1.027980223E-1,-4.953479767E-2,-7.616640627E-2
4.374849230E-1,-1.810949668E-2,-1.145159304E-1,-7.616640627E-2
4.402520730E-1,8.202536404E-2,-1.448759735E-1,-2.450108156E-2
4.415622310E-1,2.018676102E-1,-1.416801661E-1,4.953479767E-2
4.443554580E-1,3.291667104E-1,-8.894958347E-2,1.017327532E-1
4.462192310E-1,4.783037305E-1,5.486112088E-2,8.841694891E-2
4.484018040E-1,4.985437691E-1,1.081243455E-1,6.551376730E-2
4.496149610E-1,4.830974340E-1,2.018676102E-1,1.065264456E-2
4.524702270E-1,3.888215125E-1,2.471413612E-1,-2.716424316E-2
4.537556540E-1,2.284992188E-1,2.338255495E-1,-3.888215125E-2
4.565736120E-1,3.195793182E-2,1.374191195E-1,-2.503371425E-2
4.579066150E-1,-1.672465205E-1,3.195793368E-3,-6.391586736E-3
4.605223460E-1,-3.158509135E-1,-1.549959779E-1,2.663161140E-3
4.619524230E-1,-3.920173049E-1,-2.508697808E-1,-1.544633508E-2
4.647806880E-1,-3.776362538E-1,-2.599245310E-1,-3.036003746E-2
4.664334230E-1,-3.195793331E-1,-1.209075153E-1,-3.036003746E-2
4.683334230E-1,-2.412824035E-1,7.030745596E-2,-2.237055451E-2
4.701105770E-1,-1.731054783E-1,2.157160491E-1,-1.065264456E-3
4.725685380E-1,-1.187769845E-1,3.142530024E-1,-5.858954508E-3
4.741954610E-1,-8.735168725E-2,3.046656251E-1,-2.876213938E-2
4.767264610E-1,-6.231797114E-2,1.656486243E-1,-5.113269389E-2
4.782877690E-1,-1.970739290E-2,-3.834952042E-2,-6.817692518E-2
4.806787310E-1,5.858954415E-2,-2.434129268E-1,-5.965480953E-2
4.824226540E-1,1.560612470E-1,-3.403519988E-1,-2.716424316E-2
4.852605350E-1,2.556634545E-1,-3.041329980E-1,3.462109342E-2
4.867353460E-1,3.259709179E-1,-1.427454352E-1,1.145159304E-1
4.889283460E-1,3.494067490E-1,9.267801046E-2,1.672465205E-1
4.909039610E-1,3.307646215E-1,2.636529505E-1,1.805623323E-1
4.931035380E-1,2.700445354E-1,3.233077526E-1,1.363538504E-1
4.947877690E-1,1.848233789E-1,2.189118415E-1,5.113269389E-2
4.971236150E-1,7.989483327E-2,4.154531285E-2,-4.633900523E-2
4.988572690E-1,-4.367584363E-2,-1.139832959E-1,-1.235706806E-1
5.013333460E-1,-1.624528319E-1,-1.539307088E-1,-1.608549356E-1
5.031836540E-1,-2.684466541E-1,-1.102548689E-1,-1.294296384E-1
5.058098040E-1,-3.371562064E-1,-1.118527725E-2,-5.273059011E-2
5.075445770E-1,-3.249056637E-1,9.747169912E-2,6.285060197E-2
5.098945340E-1,-3.014698327E-1,1.086569726E-1,8.149272949E-2
5.112515000E-1,-2.583266199E-1,1.384843737E-1,6.711166352E-2
5.139630730E-1,-2.263686955E-1,6.817692518E-2,6.924218964E-3
5.152206540E-1,-1.890844405E-1,-8.522115648E-3,-5.219795927E-2
5.180664960E-1,-1.150485575E-1,-8.522115648E-2,-8.628641814E-2
5.193608460E-1,-2.663161140E-3,-1.912149638E-1,-5.432848632E-2
5.221698420E-1,1.358212233E-1,-2.189118415E-1,1.864212751E-2
5.235475770E-1,2.775014043E-1,-1.874865443E-1,1.033306494E-1
5.262733420E-1,4.101268053E-1,-7.723167539E-2,1.459412277E-1
5.281268840E-1,5.017395616E-1,7.137271762E-2,1.267664731E-1
5.303147270E-1,5.315669775E-1,1.992044598E-1,6.072007492E-2
5.315963840E-1,4.937500656E-1,2.700445354E-1,-1.810949668E-2
5.343824570E-1,3.691141307E-1,2.434129268E-1,-5.965480953E-2
5.357581920E-1,1.704423130E-1,2.082591951E-1,-7.350324839E-2
5.384859960E-1,-7.403588295E-2,1.310275346E-1,-5.752427876E-2
5.398237690E-1,-3.057309091E-1,-3.728425596E-3,-2.237055451E-2
5.425597690E-1,-4.554005563E-1,-1.549959779E-1,-7.989482954E-3
5.439100380E-1,-4.964132309E-1,-2.759034932E-1,-2.130528912E-2
5.466931500E-1,-4.644553065E-1,-2.913498282E-1,-3.355583176E-2
5.483639230E-1,-3.483414650E-1,-1.022653878E-1,-1.970739290E-2
5.502697300E-1,-3.073287904E-1,7.989482954E-3,-6.391586736E-3
5.523600770E-1,-2.364887148E-1,2.167813182E-1,1.651159860E-2
5.546969230E-1,-1.667138934E-1,3.526025414E-1,2.024002373E-2
5.561541540E-1,-1.065264493E-1,3.478088379E-1,-2.663161140E-3
5.586277690E-1,-3.994741663E-2,1.976065636E-1,-3.515372798E-2
5.602255770E-1,3.302319720E-2,-2.716424316E-2,-6.125270575E-2
5.626097300E-1,1.113201380E-1,-2.295644879E-1,-5.805691332E-2
5.644986540E-1,1.960086524E-1,-3.467435837E-1,-1.438106969E-2
5.671611880E-1,3.355582952E-1,-2.961435318E-1,8.096009493E-2
5.686149610E-1,4.181163013E-1,-1.059938148E-1,1.203748807E-1
5.707771920E-1,4.506068528E-1,9.267801046E-2,1.475391239E-1
5.724991920E-1,4.069310129E-1,2.535329461E-1,1.454086006E-1
5.750658840E-1,2.998719513E-1,3.195793331E-1,9.906959534E-2
5.765523840E-1,1.629854590E-1,2.439455539E-1,2.024002373E-2
5.790028070E-1,2.290318534E-2,5.645901710E-2,-7.137271762E-2
5.807135380E-1,-1.038632840E-1,-1.368864775E-1,-1.486043930E-1
5.832093840E-1,-2.183792144E-1,-2.205097377E-1,-1.794970632E-1
5.848603070E-1,-3.323625028E-1,-1.651159972E-1,-1.443433315E-1
5.875978030E-1,-4.218447208E-1,-2.822950855E-2,-5.379585549E-2
5.893056920E-1,-4.633900523E-1,9.587380290E-2,4.207794741E-2
5.916667260E-1,-4.447479248E-1,1.427454352E-1,9.161274135E-2
5.929678070E-1,-3.877562582E-1,1.070590764E-1,7.989483327E-2
5.957345730E-1,-3.174487948E-1,2.183792181E-2,9.587380104E-3
5.971908070E-1,-2.354234457E-1,-7.563377917E-2,-7.403588295E-2
5.998376490E-1,-1.480717659E-1,-1.454086006E-1,-1.235706806E-1
6.012220000E-1,-4.207794741E-2,-1.874865443E-1,-1.022653878E-1
6.039411490E-1,1.091896072E-1,-1.613875628E-1,-4.474110901E-2
6.052631540E-1,2.966761589E-1,-1.177117229E-1,3.568635881E-2
6.080451490E-1,4.916195571E-1,-6.711166352E-2,1.113201380E-1
6.098811540E-1,6.631271243E-1,9.960222989E-2,1.288969964E-1
6.120860340E-1,6.727145314E-1,1.539307088E-1,1.097222418E-1
6.133426920E-1,6.173207760E-1,2.162486911E-1,5.539375171E-2
6.161549960E-1,4.820321798E-1,2.221076339E-1,-1.917476021E-2
6.174555000E-1,2.918824553E-1,1.699096859E-1,-8.362326026E-2
6.202589190E-1,6.285060197E-2,7.936219871E-2,-1.091896072E-1
6.216882300E-1,-1.821602285E-1,-2.237055451E-2,-8.735168725E-2
6.243008460E-1,-4.793690145E-1,-1.459412277E-1,-2.769687586E-2
6.257718070E-1,-5.528722405E-1,-2.013349831E-1,-9.054748341E-3
6.284669960E-1,-5.384911895E-1,-2.327602804E-1,-6.391586736E-3
6.309790720E-1,-4.532700181E-1,-1.826928556E-1,-2.077265643E-2
6.321277300E-1,-3.360909224E-1,-6.870955974E-2,-3.834952042E-2
6.339058460E-1,-2.407497615E-1,1.022653878E-1,-5.166532472E-2
6.363560000E-1,-1.704423130E-1,2.561961114E-1,-4.953479767E-2
6.379588070E-1,-1.209075153E-1,2.865561247E-1,-3.941478580E-2
6.405709230E-1,-5.166532472E-2,2.157160491E-1,-4.793690145E-2
6.421070380E-1,4.048004746E-2,3.781688958E-2,-6.498113275E-2
6.444190770E-1,1.454086006E-1,-1.699096859E-1,-6.125270575E-2
6.465196540E-1,2.391518652E-1,-2.945456207E-1,-3.408846259E-2
6.489322650E-1,3.147856593E-1,-3.083940744E-1,2.822950855E-2
6.504639610E-1,3.691141307E-1,-1.986718178E-1,9.960222989E-2
6.528707690E-1,3.962783813E-1,-1.597896591E-2,1.470064968E-1
6.543361530E-1,3.914846778E-1,1.113201380E-1,1.736381054E-1
6.569338460E-1,3.462109566E-1,1.699096859E-1,1.539307088E-1
6.584648070E-1,2.652508616E-1,1.475391239E-1,8.681905270E-2
6.608337300E-1,1.454086006E-1,6.924218684E-2,-4.793690052E-3
6.625592300E-1,1.438106969E-2,-3.142530099E-2,-9.001484513E-2
6.650803460E-1,-1.070590764E-1,-9.640643001E-2,-1.459412277E-1
6.667706920E-1,-2.087918371E-1,-9.587380290E-2,-1.480717659E-1
6.694768800E-1,-2.918824553E-1,-5.379585549E-2,-8.468852192E-2
6.715623070E-1,-3.664509654E-1,3.089267015E-2,5.486112088E-2
6.735453030E-1,-3.744404614E-1,7.137271762E-2,1.033306494E-1
6.748088840E-1,-3.531351686E-1,6.338323653E-2,8.788431436E-2
6.776144180E-1,-3.115898669E-1,-4.261057824E-3,3.036003746E-2
6.789161920E-1,-2.412824035E-1,-6.657902896E-2,-4.101268202E-2
6.817178410E-1,-1.565938741E-1,-1.390170157E-1,-7.137271762E-2
6.830011530E-1,-4.633900523E-2,-1.752360016E-1,-4.420847446E-2
6.857959570E-1,8.522115648E-2,-1.773665249E-1,2.876213938E-2
6.870236150E-1,2.343581766E-1,-1.283643693E-1,9.693906456E-2
6.888957650E-1,3.083940744E-1,-8.149272949E-2,1.166464612E-1
6.909683840E-1,4.287689328E-1,1.597896591E-2,1.145159304E-1
6.929278410E-1,5.001416802E-1,1.033306494E-1,6.817692518E-2
6.944150380E-1,4.948153496E-1,1.805623323E-1,0.000000000E0
6.969959950E-1,4.032025933E-1,2.258360684E-1,-5.219795927E-2
6.983833460E-1,2.396845073E-1,2.018676102E-1,-6.125270575E-2
7.010993800E-1,3.408846259E-2,1.241033077E-1,-3.249056637E-2
7.024133460E-1,-1.731054783E-1,4.261057824E-3,4.793690052E-3
7.051020000E-1,-3.392867148E-1,-1.502022892E-1,3.408846259E-2
7.065264610E-1,-4.159857631E-1,-2.721750736E-1,2.769687586E-2
7.093061880E-1,-4.063983858E-1,-3.355582952E-1,4.793690052E-3
7.109954610E-1,-2.881540358E-1,-2.045307755E-1,-1.810949668E-2
7.128917690E-1,-2.364887148E-1,-1.193096191E-1,-1.810949668E-2
7.146675770E-1,-1.432780623E-1,1.038632840E-1,-2.130528912E-3
7.172049610E-1,-7.776430249E-2,3.089267015E-1,6.924218964E-3
7.187894230E-1,-4.048004746E-2,3.866910040E-1,1.065264456E-2
7.212096530E-1,-1.065264456E-2,3.233077526E-1,-1.065264456E-2
7.228860380E-1,1.278317347E-2,1.416801661E-1,-3.834952042E-2
7.253432690E-1,2.929477207E-2,-9.960222989E-2,-4.633900523E-2
7.270733460E-1,5.113269389E-2,-2.849582434E-1,-2.556634694E-2
7.297756490E-1,1.081243455E-1,-3.621899188E-1,5.752427876E-2
7.312862300E-1,1.592570394E-1,-2.386192381E-1,1.129180342E-1
7.334356920E-1,1.933455020E-1,-3.089267015E-2,1.523328125E-1
7.351118070E-1,1.885518134E-1,1.640507281E-1,1.715075821E-1
7.376297300E-1,1.427454352E-1,2.828277051E-1,1.528654546E-1
7.394182690E-1,7.084008306E-2,2.652508616E-1,9.214537591E-2
7.416052690E-1,-1.278317347E-2,1.347559541E-1,4.261057824E-3
7.434271920E-1,-8.735168725E-2,-5.645901710E-2,-8.415589482E-2
7.458534230E-1,-1.555286050E-1,-1.773665249E-1,-1.390170157E-1
7.475942300E-1,-2.183792144E-1,-1.965412945E-1,-1.342233270E-1
7.502626100E-1,-2.599245310E-1,-1.102548689E-1,-6.498113275E-2
7.520233070E-1,-2.743056118E-1,9.587380104E-3,3.621899337E-2
7.543439950E-1,-2.434129268E-1,1.027980223E-1,1.097222418E-1
7.555837300E-1,-1.842907518E-1,1.288969964E-1,1.246359423E-1
7.584126490E-1,-1.288969964E-1,1.006674916E-1,7.882957160E-2
7.596484610E-1,-8.309062570E-2,3.195793182E-2,2.663161140E-3
7.625162640E-1,-4.580637068E-2,-7.243798673E-2,-4.580637068E-2
7.637831920E-1,6.924218964E-3,-1.688444167E-1,-5.006742850E-2
7.666201490E-1,9.427590668E-2,-2.066612989E-1,-1.065264456E-2
7.678901150E-1,2.114549875E-1,-2.071939409E-1,5.965480953E-2
7.707246870E-1,3.398193717E-1,-1.544633508E-1,1.209075153E-1
7.726277300E-1,4.799016416E-1,6.764429063E-2,1.257012039E-1
7.747660720E-1,4.937500656E-1,1.454086006E-1,1.075917110E-1
7.759723070E-1,4.580637217E-1,2.657834888E-1,6.125270575E-2
7.788353800E-1,3.462109566E-1,3.030677438E-1,1.917476021E-2
7.800667690E-1,1.699096859E-1,2.583266199E-1,-7.989482954E-3
7.829391490E-1,-1.507349163E-1,2.450108156E-2,-6.391586736E-3
7.841985000E-1,-3.536677957E-1,-1.432780623E-1,9.054748341E-3
7.869429610E-1,-4.820321798E-1,-2.705771625E-1,1.278317347E-2
7.885005000E-1,-5.129248500E-1,-3.270362020E-1,4.793690052E-3
7.911477260E-1,-4.585963488E-1,-2.860234976E-1,5.326322280E-4
7.928355760E-1,-3.446130455E-1,-1.523328125E-1,1.597896684E-3
7.946553460E-1,-2.098570913E-1,5.060006306E-2,1.012001187E-2
7.964491920E-1,-1.107875034E-1,2.561961114E-1,1.757686399E-2
7.988916150E-1,-5.379585549E-2,3.787015080E-1,2.450108156E-2
8.005410000E-1,-3.195793182E-2,3.557983339E-1,1.491370238E-2
8.030528460E-1,-5.858954508E-3,1.997370869E-1,-2.130528912E-2
8.046502690E-1,2.822950855E-2,-4.633900523E-2,-5.273059011E-2
8.070747690E-1,7.669904083E-2,-2.721750736E-1,-6.604639441E-2
8.087818460E-1,1.422128081E-1,-3.925499618E-1,-3.302319720E-2
8.116075720E-1,2.130528986E-1,-3.547330499E-1,3.249056637E-2
8.130921530E-1,2.732403278E-1,-1.486043930E-1,1.038632840E-1
8.152636920E-1,3.041329980E-1,7.776430249E-2,1.741707325E-1
8.169452300E-1,2.966761589E-1,2.370213419E-1,2.125202566E-1
8.193958070E-1,2.551308274E-1,2.801645398E-1,1.890844405E-1
8.212820000E-1,1.725728363E-1,1.970739216E-1,1.054611802E-1
8.233908460E-1,5.805691332E-2,4.420847446E-2,-7.989482954E-3
8.251277300E-1,-7.510114461E-2,-1.118527651E-1,-1.118527651E-1
8.277452300E-1,-1.970739216E-1,-1.635181010E-1,-1.763012707E-1
8.293164610E-1,-2.998719513E-1,-1.193096191E-1,-1.645833552E-1
8.320467260E-1,-3.717772961E-1,-2.822950855E-2,-7.403588295E-2
8.337431920E-1,-3.898867965E-1,8.841694891E-2,9.640643001E-2
8.361152250E-1,-3.792341352E-1,1.012001261E-1,1.331580579E-1
8.373249610E-1,-3.270362020E-1,9.001484513E-2,1.454086006E-1
8.401846100E-1,-2.348908186E-1,-2.396845073E-2,4.580637068E-2
8.414382300E-1,-1.560612470E-1,-1.049285457E-1,-4.048004746E-2
8.442893790E-1,-7.190535218E-2,-1.688444167E-1,-7.882957160E-2
8.455453840E-1,3.036003746E-2,-1.757686287E-1,-5.432848632E-2
8.483945720E-1,1.576591432E-1,-1.368864775E-1,2.077265643E-2
8.496708460E-1,3.051982522E-1,-8.468852192E-2,1.006674916E-1
8.524988790E-1,4.538026452E-1,2.343581803E-2,1.257012039E-1
8.544963070E-1,5.566006899E-1,1.177117229E-1,9.427590668E-2
8.565396480E-1,5.874933600E-1,1.763012707E-1,4.207794741E-2
8.578213070E-1,5.203816891E-1,2.125202566E-1,-7.989482954E-3
8.606092250E-1,3.611246645E-1,2.157160491E-1,-3.036003746E-2
8.618856920E-1,1.491370201E-1,1.400822699E-1,-1.704423130E-2
8.647133790E-1,-9.214537591E-2,3.462109342E-2,1.651159860E-2
8.659632690E-1,-3.222424984E-1,-9.534116834E-2,4.261057824E-2
8.687083070E-1,-4.772384763E-1,-2.008023560E-1,2.929477207E-2
8.701164610E-1,-5.299690962E-1,-2.711097896E-1,-1.065264456E-2
8.729212250E-1,-5.139901042E-1,-2.700445354E-1,-4.101268202E-2
8.747130380E-1,-3.829625845E-1,-7.563377917E-2,-5.326322466E-2
8.764648840E-1,-3.296993375E-1,1.704423130E-2,-4.474110901E-2
8.782410380E-1,-2.380866110E-1,2.071939409E-1,-1.384843793E-2
8.809647300E-1,-1.736381054E-1,3.339604139E-1,1.597896591E-2
8.824007690E-1,-1.320927888E-1,3.302319944E-1,2.130528912E-2
8.851456150E-1,-8.841694891E-2,2.135855258E-1,-4.793690052E-3
8.865371150E-1,-3.142530099E-2,-9.054748341E-3,-3.621899337E-2
8.892484610E-1,4.207794741E-2,-2.380866110E-1,-4.740426689E-2
8.907345760E-1,1.688444167E-1,-3.771036267E-1,6.924218964E-3
8.934034560E-1,2.551308274E-1,-2.934803665E-1,8.202536404E-2
8.948808070E-1,3.233077526E-1,-9.800432622E-2,1.523328125E-1
8.970374230E-1,3.563309610E-1,1.091896072E-1,2.002697140E-1
8.987935380E-1,3.504720032E-1,2.492718846E-1,2.002697140E-1
9.013009610E-1,3.057309091E-1,2.716424465E-1,1.464738697E-1
9.029402300E-1,2.210423797E-1,1.576591432E-1,6.125270575E-2
9.053860380E-1,1.086569726E-1,-6.924218964E-3,-2.609897964E-2
9.073103840E-1,-1.597896591E-2,-1.225054115E-1,-1.033306494E-1
9.094587690E-1,-1.411475390E-1,-1.491370201E-1,-1.288969964E-1
9.112231920E-1,-2.593919039E-1,-9.640643001E-2,-9.374327213E-2
9.139545330E-1,-3.504720032E-1,1.384843793E-2,-1.491370238E-2
9.156207690E-1,-3.989415467E-1,9.587380290E-2,6.657902896E-2
9.180299170E-1,-4.032025933E-1,1.150485575E-1,1.086569726E-1
9.193579990E-1,-3.792341352E-1,8.042746782E-2,9.853696078E-2
9.220987250E-1,-3.520699143E-1,9.587380104E-3,4.793690145E-2
9.233661920E-1,-3.057309091E-1,-7.669904083E-2,-7.989482954E-3
9.262031480E-1,-2.253034264E-1,-1.736381054E-1,-2.876213938E-2
9.274813070E-1,-1.075917110E-1,-2.231729031E-1,-1.651159860E-2
9.303069170E-1,4.474110901E-2,-2.018676102E-1,3.142530099E-2
9.315821150E-1,2.141181529E-1,-1.560612470E-1,9.640643001E-2
9.344106480E-1,3.787015080E-1,-6.072007492E-2,1.331580579E-1
9.364002300E-1,5.496764779E-1,1.518001854E-1,8.362326026E-2
9.384593020E-1,5.672533512E-1,2.029328793E-1,5.752427876E-2
9.397680760E-1,5.320996046E-1,2.609897852E-1,9.054748341E-3
9.425287640E-1,3.296993375E-1,2.157160491E-1,-2.290318534E-2
9.438275760E-1,1.288969964E-1,1.198422536E-1,-1.438106969E-2
9.466333790E-1,-9.693906456E-2,-1.544633508E-2,1.651159860E-2
9.480055760E-1,-3.051982522E-1,-1.486043930E-1,4.953479767E-2
9.506255760E-1,-4.346278906E-1,-2.561961114E-1,5.326322466E-2
9.520427300E-1,-4.665858448E-1,-3.099919558E-1,2.609897964E-2
9.548408790E-1,-4.266384244E-1,-2.551308274E-1,-8.522115648E-3
9.565546150E-1,-3.557983339E-1,-1.123853996E-1,-2.663161233E-2
9.584253840E-1,-2.812298238E-1,9.214537591E-2,-2.450108156E-2
9.601858840E-1,-2.253034264E-1,2.924150825E-1,-1.864212751E-2
9.626342300E-1,-1.901497096E-1,3.882888854E-1,-1.757686399E-2
9.643965380E-1,-1.518001854E-1,3.233077526E-1,-2.237055451E-2
9.667795380E-1,-1.075917110E-1,1.502022892E-1,-3.781688958E-2
9.684385380E-1,-4.687163606E-2,-1.054611802E-1,-3.142530099E-2
9.709592300E-1,2.822950855E-2,-3.158509135E-1,-2.130528912E-3
9.726461530E-1,1.155811921E-1,-4.122573435E-1,5.219795927E-2
9.753282250E-1,2.146507949E-1,-3.611246645E-1,1.166464612E-1
9.770578840E-1,3.057309091E-1,-1.874865443E-1,1.683117896E-1
9.790066920E-1,3.685815036E-1,3.089267015E-2,1.981391907E-1
9.808919990E-1,3.765709996E-1,2.162486911E-1,1.922802329E-1
9.833028840E-1,3.307646215E-1,3.051982522E-1,1.454086006E-1
9.849461920E-1,2.439455539E-1,2.561961114E-1,7.297061384E-2
9.874131920E-1,1.267664731E-1,1.022653878E-1,-7.989482954E-3
9.890284610E-1,-6.072007492E-2,-1.374191195E-1,-9.800432622E-2
9.913687300E-1,-1.837581247E-1,-1.933455020E-1,-1.027980223E-1
9.930794220E-1,-2.929477394E-1,-1.310275346E-1,-6.072007492E-2
9.958766090E-1,-3.845604658E-1,-5.858954508E-3,1.438106969E-2
9.978833840E-1,-4.463458061E-1,1.230380461E-1,8.948221803E-2
9.999699560E-1,-4.681837261E-1,1.368864775E-1,1.432780623E-1
1.001291230E0,-4.527373910E-1,8.309062570E-2,1.342233270E-1
1.004038840E0,-4.085289240E-1,-1.065264456E-2,7.510114461E-2
1.005388538E0,-3.408846259E-1,-1.262338310E-1,7.456851192E-3
1.008142263E0,-2.348908186E-1,-2.077265680E-1,-3.568635881E-2
1.009434846E0,-9.747169912E-2,-2.194444835E-1,-3.781688958E-2
1.012220763E0,6.498113275E-2,-1.629854590E-1,1.438106969E-2
1.013493230E0,2.588592768E-1,-8.841694891E-2,1.043959185E-1
1.016288994E0,4.596616030E-1,-3.781688958E-2,1.858886480E-1
1.018221230E0,6.727145314E-1,8.681905270E-2,1.880191714E-1
1.020330340E0,6.929545403E-1,1.267664731E-1,1.661812514E-1
1.021615346E0,6.327670813E-1,1.715075821E-1,1.059938148E-1
1.024399186E0,4.820321798E-1,1.731054783E-1,3.568635881E-2
1.025911307E0,2.785666585E-1,1.326254308E-1,-3.195793182E-2
1.028503032E0,4.101268202E-2,8.841694891E-2,-7.350324839E-2
1.029821961E0,-2.173139453E-1,4.793690052E-3,-5.379585549E-2
1.032558769E0,-4.484763443E-1,-9.161274135E-2,-5.326322280E-4
1.033961307E0,-6.045376062E-1,-1.523328125E-1,3.621899337E-2
1.036710955E0,-6.567355394E-1,-1.938781291E-1,3.888215125E-2
1.038475615E0,-5.960154533E-1,-1.683117896E-1,2.237055451E-2
1.040279884E0,-5.486112237E-1,-1.438107044E-1,1.651159860E-2
1.042135846E0,-4.245078862E-1,-3.089267015E-2,-1.065264456E-3
1.044546807E0,-3.083940744E-1,1.097222418E-1,-7.989482954E-3
1.046161153E0,-2.173139453E-1,2.386192381E-1,-1.597896684E-3
1.048565807E0,-1.006674916E-1,2.311623842E-1,1.597896591E-2
1.050266807E0,7.456851192E-3,1.241033077E-1,2.663161140E-3
1.052672346E0,1.326254308E-1,-7.084008306E-2,5.326322280E-3
1.054441384E0,2.530003190E-1,-2.466087192E-1,3.621899337E-2
1.057179071E0,3.568635881E-1,-3.094593287E-1,9.108011425E-2
1.058701192E0,4.346278906E-1,-2.876214087E-1,1.571265012E-1
1.060870730E0,4.964132309E-1,-1.651159972E-1,2.008023560E-1
1.062469807E0,5.182511806E-1,1.118527725E-2,1.997370869E-1
1.064961230E0,4.697816372E-1,1.709749401E-1,1.693770438E-1
1.066601692E0,3.664509654E-1,2.418150306E-1,1.177117229E-1
1.068960153E0,2.322276533E-1,2.008023560E-1,5.805691332E-2
1.070690499E0,8.202536404E-2,1.043959185E-1,-6.391586736E-3
1.073152269E0,-9.001484513E-2,1.065264456E-3,-5.805691332E-2
1.074800038E0,-2.668487430E-1,-6.178534031E-2,-7.510114461E-2
1.077617532E0,-4.181163013E-1,-8.575379103E-2,-5.592638254E-2
1.079304538E0,-5.299690962E-1,-4.474110901E-2,-1.810949668E-2
1.081686225E0,-5.960154533E-1,2.290318534E-2,3.355583176E-2
1.082938384E0,-6.146575809E-1,3.621899337E-2,9.267801046E-2
1.085754378E0,-5.890912414E-1,2.716424316E-2,1.241033077E-1
1.087034461E0,-5.155879855E-1,1.118527725E-2,1.017327532E-1
1.089857994E0,-3.984089196E-1,-1.065264456E-2,4.474110901E-2
1.091247807E0,-2.540655732E-1,-7.297061384E-2,1.012001187E-2
1.093960917E0,-9.001484513E-2,-1.390170157E-1,1.917476021E-2
1.095314192E0,9.640643001E-2,-1.288969964E-1,4.740426689E-2
1.098064148E0,2.945456207E-1,-1.150485575E-1,1.001348570E-1
1.099943076E0,5.592638254E-1,-5.645901710E-2,1.518001854E-1
1.102105109E0,6.242449880E-1,-4.261057824E-3,1.432780623E-1
1.103391038E0,6.812366247E-1,1.139832959E-1,9.480853379E-2
1.106173532E0,5.858954787E-1,2.380866110E-1,3.728425596E-3
1.107540192E0,4.218447208E-1,2.311623842E-1,-3.408846259E-2
1.110276301E0,2.002697140E-1,1.906823367E-1,-4.846953228E-2
1.111633384E0,-4.527373984E-2,7.510114461E-2,-2.503371425E-2
1.114379686E0,-2.743056118E-1,-1.129180342E-1,2.556634694E-2
1.115715269E0,-4.372910559E-1,-2.556634545E-1,4.580637068E-2
1.118483878E0,-4.996090233E-1,-3.270362020E-1,2.929477207E-2
1.120436922E0,-4.868258536E-1,-3.238403797E-1,1.384843793E-2
1.122067653E0,-4.117247164E-1,-2.077265680E-1,9.054748341E-3
1.123820345E0,-3.057309091E-1,-1.597896591E-2,1.012001187E-2
1.126300038E0,-2.024002522E-1,2.205097377E-1,7.456851192E-3
1.127943961E0,-1.283643693E-1,3.547330499E-1,2.077265643E-2
1.130401153E0,-8.362326026E-2,3.632551730E-1,1.704423130E-2
1.132490076E0,-4.474110901E-2,2.615224123E-1,-7.989482954E-3
1.134856801E0,-6.391586736E-3,4.633900523E-2,-3.249056637E-2
1.136238769E0,2.982740477E-2,-1.778991669E-1,-3.675162420E-2
1.138960263E0,6.285060197E-2,-3.078614175E-1,-1.171790902E-2
1.140490576E0,1.059938148E-1,-3.414172530E-1,4.900216311E-2
1.142819615E0,1.576591432E-1,-2.423476577E-1,1.107875034E-1
1.144554115E0,1.896170676E-1,-2.503371425E-2,1.486043930E-1
1.146885653E0,1.794970632E-1,1.592570394E-1,1.778991669E-1
1.148565384E0,1.299622655E-1,2.423476577E-1,1.736381054E-1
1.151034615E0,3.781688958E-2,1.384843737E-1,7.297061384E-2
1.152599999E0,-3.621899337E-2,2.077265643E-2,-4.048004746E-2
1.155312384E0,-1.230380461E-1,-1.081243455E-1,-1.161138266E-1
1.156808730E0,-2.018676102E-1,-1.683117896E-1,-1.294296384E-1
1.159501340E0,-2.466087192E-1,-1.214401498E-1,-9.534116834E-2
1.161243076E0,-2.471413612E-1,-3.675162420E-2,-1.597896591E-2
1.163576532E0,-2.082591951E-1,4.633900523E-2,6.604639441E-2
1.165028961E0,-1.459412277E-1,1.086569726E-1,1.198422536E-1
1.167644993E0,-8.841694891E-2,1.347559541E-1,1.182443574E-1
1.168967730E0,-4.740426689E-2,1.027980223E-1,8.575379103E-2
1.171748570E0,-1.544633508E-2,-7.989482954E-3,5.060006306E-2
1.173068230E0,2.822950855E-2,-1.400822699E-1,2.929477207E-2
1.175851686E0,9.853696078E-2,-2.279665917E-1,1.970739290E-2
1.177212422E0,1.794970632E-1,-2.530003190E-1,3.408846259E-2
1.179953878E0,2.487392575E-1,-1.837581247E-1,5.752427876E-2
1.181939576E0,3.014698327E-1,8.628641814E-2,5.219795927E-2
1.184001032E0,3.020024598E-1,1.805623323E-1,3.515372798E-2
1.185272192E0,2.780340314E-1,3.126551211E-1,-3.728425596E-3
1.188068955E0,2.018676102E-1,3.147856593E-1,-3.036003746E-2
1.189319807E0,6.817692518E-2,2.274339646E-1,-2.822950855E-2
1.192171724E0,-1.049285457E-1,7.403588295E-2,-9.054748341E-3
1.193514538E0,-2.775014043E-1,-1.219727769E-1,2.450108156E-2
1.196143192E0,-3.930825889E-1,-2.796319127E-1,3.036003746E-2
1.197637153E0,-4.165183902E-1,-3.557983339E-1,1.278317347E-2
1.200377109E0,-3.542004228E-1,-3.408846259E-1,-3.728425596E-3
1.202173192E0,-1.661812514E-1,-1.012001261E-1,-1.597896684E-3
1.203969807E0,-1.017327532E-1,2.130528912E-2,3.195793368E-3
1.205738884E0,1.917476021E-2,2.604571581E-1,1.864212751E-2
1.208203884E0,1.262338310E-1,4.037352204E-1,2.929477207E-2
1.209828961E0,1.480717659E-1,3.526025414E-1,-1.065264456E-3
1.212397384E0,1.368864775E-1,1.789644361E-1,-3.994741663E-2
1.213905615E0,1.006674916E-1,-5.219795927E-2,-5.432848632E-2
1.216285499E0,5.060006306E-2,-2.274339646E-1,-4.687163606E-2
1.218150730E0,1.065264456E-2,-2.945456207E-1,-9.587380104E-3
1.220841762E0,-3.728425596E-3,-2.641855776E-1,4.687163606E-2
1.222221961E0,-1.597896684E-3,-1.241033077E-1,9.747169912E-2
1.224832538E0,-2.130528912E-3,5.539375171E-2,1.299622655E-1
1.226338538E0,-2.556634694E-2,1.821602285E-1,1.438107044E-1
1.229024384E0,-6.604639441E-2,2.039981484E-1,1.288969964E-1
1.230381961E0,-1.075917110E-1,1.427454352E-1,5.805691332E-2
1.232789730E0,-1.448759735E-1,3.728425503E-2,-3.568635881E-2
1.234461999E0,-1.789644361E-1,-9.480853379E-2,-1.027980223E-1
1.236962268E0,-1.880191714E-1,-1.683117896E-1,-1.262338310E-1
1.238759153E0,-1.656486243E-1,-1.475391239E-1,-9.640643001E-2
1.241387109E0,-1.123853996E-1,-4.900216311E-2,-3.142530099E-2
1.243242538E0,-2.663161140E-3,1.075917110E-1,7.563377917E-2
1.245468685E0,3.036003746E-2,1.613875628E-1,9.321063757E-2
1.246723461E0,7.882957160E-2,2.098570913E-1,1.001348570E-1
1.249536878E0,1.017327532E-1,1.512675583E-1,7.989483327E-2
1.250863422E0,1.187769845E-1,1.651159860E-2,4.900216311E-2
1.253639647E0,1.347559541E-1,-1.613875628E-1,2.450108156E-2
1.254978038E0,1.539307088E-1,-2.386192381E-1,1.597896684E-3
1.257742378E0,1.672465205E-1,-2.087918371E-1,1.651159860E-2
1.259363653E0,1.768338978E-1,-6.231797114E-2,1.651159860E-2
1.261845724E0,1.858886480E-1,1.400822699E-1,-1.491370238E-2
1.263754422E0,1.778991669E-1,2.870887816E-1,-3.834952042E-2
1.265885647E0,1.155811921E-1,3.371562064E-1,-3.941478580E-2
1.267193230E0,-3.195793368E-3,2.897519469E-1,-2.130528912E-2
1.269953878E0,-1.539307088E-1,1.267664731E-1,1.012001187E-2
1.271316845E0,-2.844256163E-1,-7.776430249E-2,1.651159860E-2
1.274056378E0,-3.584614992E-1,-2.748382390E-1,-2.130528912E-3
1.275556576E0,-3.547330499E-1,-3.829625845E-1,-2.769687586E-2
1.278081538E0,-2.918824553E-1,-3.483414650E-1,-3.781688958E-2
1.279469538E0,-1.922802329E-1,-1.651159972E-1,-1.438106969E-2
1.282263416E0,-8.149272949E-2,7.829693705E-2,3.515372798E-2
1.283956038E0,3.355583176E-2,2.849582434E-1,7.882957160E-2
1.285809153E0,1.315601617E-1,3.707120419E-1,8.575379103E-2
1.287639845E0,1.938781291E-1,3.201119602E-1,5.113269389E-2
1.290157576E0,2.093244642E-1,1.640507281E-1,-7.989482954E-3
1.291728268E0,1.704423130E-1,-1.651159860E-2,-5.645901710E-2
1.294199268E0,9.321063757E-2,-1.416801661E-1,-8.309062570E-2
1.295825191E0,3.302319720E-2,-2.199771106E-1,-6.711166352E-2
1.298201961E0,1.331580617E-2,-2.205097377E-1,-2.343581803E-2
1.299972153E0,7.989482954E-3,-1.012001261E-1,2.716424316E-2
1.302750339E0,-1.544633508E-2,5.113269389E-2,8.894958347E-2
1.304374461E0,-7.350324839E-2,1.624528319E-1,1.544633508E-1
1.306388307E0,-9.321063757E-2,1.576591432E-1,1.475391239E-1
1.308279845E0,-1.139832959E-1,1.150485575E-1,7.776430249E-2
1.310546191E0,-1.363538504E-1,-7.989482954E-3,-1.491370238E-2
1.312302845E0,-1.448759735E-1,-2.013349831E-1,-9.747169912E-2
1.314557807E0,-1.262338310E-1,-1.906823367E-1,-1.129180342E-1
1.316345153E0,-7.989483327E-2,-8.096009493E-2,-8.894958347E-2
1.318757345E0,-1.384843793E-2,2.716424316E-2,-2.024002373E-2
1.320447999E0,6.125270575E-2,1.326254308E-1,3.728425503E-2
1.323191224E0,1.198422536E-1,2.135855258E-1,5.006742850E-2
1.325325730E0,1.502022892E-1,1.981391907E-1,4.261057824E-2
1.327268762E0,1.427454352E-1,6.391586363E-2,3.302319720E-2
1.328548845E0,1.257012039E-1,-9.054747969E-2,1.065264456E-2
1.331336377E0,1.027980223E-1,-2.039981484E-1,-1.331580617E-2
1.332682422E0,8.522115648E-2,-2.535329461E-1,-1.864212751E-2
1.335439031E0,6.551376730E-2,-2.178465873E-1,-1.171790902E-2
1.336780807E0,6.551376730E-2,-7.669904083E-2,-2.077265643E-2
1.339541570E0,7.882957160E-2,1.118527651E-1,-4.740426689E-2
1.340999307E0,7.882957160E-2,2.316950262E-1,-5.326322466E-2
1.343644954E0,4.633900523E-2,2.876214087E-1,-4.900216311E-2
1.345868038E0,-5.432848632E-2,1.693770438E-1,-2.024002373E-2
1.347685608E0,-8.681905270E-2,8.255799860E-2,-1.544633508E-2
1.348909576E0,-1.342233270E-1,-1.251685768E-1,-7.989482954E-3
1.351754570E0,-1.427454352E-1,-2.956108749E-1,-2.503371425E-2
1.353078807E0,-1.081243455E-1,-3.462109566E-1,-4.900216311E-2
1.355858262E0,-4.687163606E-2,-2.657834888E-1,-5.539375171E-2
1.357158845E0,2.716424316E-2,-8.681905270E-2,-3.089267015E-2
1.359852076E0,9.906959534E-2,1.326254308E-1,3.195793368E-3
1.361311038E0,1.544633508E-1,2.918824553E-1,2.609897964E-2
1.364064723E0,1.906823367E-1,3.153182864E-1,1.917476021E-2
1.365885576E0,1.784317940E-1,1.645833552E-1,-4.900216311E-2
1.367697230E0,1.081243455E-1,7.989482954E-3,-8.628641814E-2
1.369598499E0,1.438106969E-2,-1.283643693E-1,-1.059938148E-1
1.371919115E0,-6.285060197E-2,-2.167813182E-1,-9.374327213E-2
1.373809307E0,-1.001348570E-1,-2.167813182E-1,-6.817692518E-2
1.376028268E0,-1.123853996E-1,-1.278317273E-1,-3.302319720E-2
1.377663461E0,-1.187769845E-1,5.858954508E-3,1.597896591E-2
1.380007768E0,-1.267664731E-1,1.225054115E-1,5.486112088E-2
1.381777922E0,-1.358212233E-1,1.784317940E-1,6.498113275E-2
1.384543993E0,-1.475391239E-1,1.480717659E-1,3.302319720E-2
1.386046845E0,-1.486043930E-1,5.752427876E-2,-3.302319720E-2
1.388266845E0,-1.272991002E-1,-9.906959534E-2,-8.628641814E-2
1.390358538E0,-9.108011425E-2,-1.954760253E-1,-1.219727769E-1
1.392591191E0,-4.207794741E-2,-1.667138934E-1,-1.283643693E-1
1.394318345E0,1.864212751E-2,-8.415589482E-2,-9.214537591E-2
1.396475884E0,1.075917110E-1,2.130528912E-2,-3.249056637E-2
1.398299615E0,1.928128600E-1,1.379517466E-1,1.012001187E-2
1.400552845E0,2.348908186E-1,2.375539690E-1,2.290318534E-2
1.402325191E0,2.269013226E-1,2.173139453E-1,3.249056637E-2
1.405084493E0,1.890844405E-1,7.776430249E-2,2.769687586E-2
1.406829038E0,1.443433315E-1,-1.507349163E-1,-3.036003746E-2
1.409160300E0,1.283643693E-1,-2.221076339E-1,-4.314320907E-2
1.410391114E0,9.427590668E-2,-2.833603323E-1,-5.113269389E-2
1.413229185E0,6.444849819E-2,-2.332929224E-1,-4.474110901E-2
1.414551268E0,6.285060197E-2,-1.001348570E-1,-3.834952042E-2
1.417333262E0,6.551376730E-2,2.055960447E-1,-6.817692518E-2
1.418669691E0,3.249056637E-2,2.934803665E-1,-6.338323653E-2
1.421437069E0,-3.089267015E-2,3.009372056E-1,-6.604639441E-2
1.422773999E0,-1.102548689E-1,1.885518134E-1,-6.444849819E-2
1.425540723E0,-1.848233789E-1,0.000000000E0,-6.178534031E-2
1.427478076E0,-2.284992188E-1,-1.842907518E-1,-7.137271762E-2
1.429587031E0,-2.125202566E-1,-3.153182864E-1,-8.149272949E-2
1.431429730E0,-1.358212233E-1,-3.121224940E-1,-9.161274135E-2
1.433655416E0,-3.089267015E-2,-1.640507281E-1,-7.669904083E-2
1.434908538E0,5.912217870E-2,6.498113275E-2,-3.036003746E-2
1.437758723E0,1.166464612E-1,2.961435318E-1,2.876213938E-2
1.439064807E0,1.459412277E-1,4.069310129E-1,5.006742850E-2
1.441794499E0,1.619201899E-1,3.680488765E-1,1.704423130E-2
1.443222614E0,1.533980817E-1,1.858886480E-1,-4.900216311E-2
1.445963415E0,9.906959534E-2,-3.355583176E-2,-1.086569726E-1
1.447695153E0,2.077265643E-2,-1.832254827E-1,-1.363538504E-1
1.449556114E0,-4.420847446E-2,-2.450108230E-1,-1.198422536E-1
1.451413845E0,-6.285060197E-2,-2.061286718E-1,-6.604639441E-2
1.453926076E0,-4.527373984E-2,-7.669904083E-2,-8.522115648E-3
1.455454576E0,-2.183792181E-2,7.882957160E-2,4.527373984E-2
1.457960576E0,-2.183792181E-2,1.880191714E-1,8.681905270E-2
1.459493153E0,-4.048004746E-2,2.253034264E-1,8.096009493E-2
1.461923961E0,-7.243798673E-2,1.683117896E-1,2.609897964E-2
1.463678614E0,-1.081243455E-1,5.006742850E-2,-5.858954415E-2
1.466430031E0,-1.299622655E-1,-1.086569726E-1,-1.283643693E-1
1.467862922E0,-1.134506613E-1,-2.247707993E-1,-1.613875628E-1
1.470167268E0,-7.669904083E-2,-1.565938741E-1,-1.257012039E-1
1.471914268E0,-2.396845073E-2,-3.462109342E-2,-5.219795927E-2
1.474492614E0,3.568635881E-2,1.118527651E-1,9.054748341E-3
1.476050076E0,8.468852192E-2,2.407497615E-1,2.237055451E-2
1.478584961E0,9.640643001E-2,2.806971967E-1,-5.858954508E-3
1.480156384E0,7.936219871E-2,1.720402092E-1,-3.621899337E-2
1.482528653E0,4.687163606E-2,3.728425596E-3,-6.977482140E-2
1.484241807E0,1.970739290E-2,-1.608549356E-1,-8.149272949E-2
1.486974915E0,-2.130528912E-3,-2.844256163E-1,-5.752427876E-2
1.488760307E0,-4.261057824E-3,-2.988066673E-1,-1.757686399E-2
1.491055685E0,2.396845073E-2,-2.396845073E-1,1.012001187E-2
1.492301153E0,8.149272949E-2,-9.321063757E-2,1.065264456E-3
1.495123108E0,1.363538504E-1,7.669904083E-2,-3.781688958E-2
1.496430768E0,1.486043930E-1,1.986718178E-1,-7.456851006E-2
1.499224800E0,1.059938148E-1,2.466087192E-1,-9.587380290E-2
1.500578076E0,3.408846259E-2,1.709749401E-1,-1.022653878E-1
1.503326800E0,-4.207794741E-2,3.621899337E-2,-1.155811921E-1
1.504630961E0,-1.043959185E-1,-1.512675583E-1,-1.219727769E-1
1.507429108E0,-1.166464612E-1,-3.142530024E-1,-1.315601617E-1
1.509356614E0,-3.621899337E-2,-3.488741219E-1,-1.384843737E-1
1.511468723E0,3.728425596E-3,-2.822950780E-1,-1.315601617E-1
1.512921845E0,6.498113275E-2,-8.468852192E-2,-8.522115648E-2
1.515536377E0,9.800432622E-2,1.251685768E-1,-1.704423130E-2
1.516805076E0,1.150485575E-1,2.487392575E-1,1.544633508E-2
1.519638377E0,1.262338310E-1,2.386192381E-1,-1.544633508E-2
1.520982537E0,8.522115648E-2,2.450108156E-2,-1.320927888E-1
1.523653230E0,7.989482954E-3,-1.390170157E-1,-1.901497096E-1
1.525050999E0,-7.350324839E-2,-2.402171344E-1,-2.109223604E-1
1.527843838E0,-1.230380461E-1,-2.545982003E-1,-1.864212751E-1
1.529628384E0,-1.288969964E-1,-1.885518134E-1,-1.299622655E-1
1.531385037E0,-1.097222418E-1,-8.788431436E-2,-5.592638254E-2
1.533203884E0,-9.161274135E-2,4.314320907E-2,4.261057824E-3
1.535641961E0,-9.001484513E-2,1.715075821E-1,2.396845073E-2
1.537352961E0,-1.123853996E-1,1.693770438E-1,3.408846259E-2
1.539752268E0,-1.629854590E-1,9.214537591E-2,2.663161140E-3
1.541402268E0,-1.917476058E-1,4.101268202E-2,-7.137271762E-2
1.544029576E0,-2.103897333E-1,-1.512675583E-1,-9.800432622E-2
1.545552961E0,-2.306297570E-1,-1.810949594E-1,-1.177117229E-1
1.548321569E0,-2.359560728E-1,-1.544633508E-1,-9.054747969E-2
1.549869268E0,-2.002697140E-1,-3.621899337E-2,-6.444849819E-2
1.551940922E0,-1.272991002E-1,1.038632840E-1,-2.769687586E-2
1.553663576E0,-5.166532472E-2,1.720402092E-1,1.225054078E-2
1.556154768E0,9.054748341E-3,2.050634027E-1,3.515372798E-2
1.557707230E0,6.764429063E-2,1.219727769E-1,4.740426689E-2
1.560162191E0,1.235706806E-1,-3.355583176E-2,5.113269389E-2
1.561930499E0,1.581917703E-1,-1.565938741E-1,4.527373984E-2
1.564272345E0,1.656486243E-1,-2.157160491E-1,4.367584363E-2
1.565978653E0,1.651159972E-1,-1.997370869E-1,4.261057824E-2
1.568757992E0,1.757686287E-1,-1.299622655E-1,2.290318534E-2
1.570450268E0,2.162486911E-1,5.486112088E-2,-4.527373984E-2
1.572825684E0,2.178465873E-1,1.102548689E-1,-6.604639441E-2
1.574073230E0,1.970739216E-1,1.933455020E-1,-9.161274135E-2
1.576893453E0,6.924218684E-2,2.572613657E-1,-9.853696078E-2
1.578256730E0,-5.805691332E-2,1.922802329E-1,-7.243798673E-2
1.580996223E0,-1.741707325E-1,2.450108156E-2,-3.408846259E-2
1.582291384E0,-2.508697808E-1,-1.565938741E-1,-1.864212751E-2
1.585099800E0,-2.844256163E-1,-2.679139972E-1,-2.982740477E-2
1.586419153E0,-2.817624509E-1,-2.828277051E-1,-3.568635881E-2
1.589203146E0,-2.604571581E-1,-1.970739216E-1,-2.343581803E-2
1.591424153E0,-2.194444835E-1,-3.195793368E-3,-1.384843793E-2
1.593243723E0,-1.683117896E-1,1.954760253E-1,-4.793690052E-3
1.594478422E0,-1.198422536E-1,3.163835406E-1,1.597896684E-3
1.597312146E0,-7.563377917E-2,2.998719513E-1,3.195793368E-3
1.598749114E0,-3.515372798E-2,1.842907518E-1,-4.793690052E-3
1.601415761E0,1.012001187E-2,1.597896684E-3,-1.225054078E-2
1.602804307E0,5.592638254E-2,-1.901497096E-1,5.326322280E-4
1.605519646E0,1.203748807E-1,-3.030677438E-1,2.876213938E-2
1.606865537E0,1.944107562E-1,-3.004045784E-1,6.125270575E-2
1.609623607E0,2.663161159E-1,-1.816275865E-1,9.054747969E-2
1.611393961E0,3.046656251E-1,1.267664731E-1,9.800432622E-2
1.613164037E0,2.860234976E-1,2.231729031E-1,9.001484513E-2
1.615065768E0,2.050634027E-1,3.627225459E-1,5.805691332E-2
1.617441037E0,8.362326026E-2,3.680488765E-1,-5.326322280E-3
1.619216884E0,-5.539375171E-2,2.279665917E-1,-6.551376730E-2
1.621635537E0,-2.071939409E-1,2.343581803E-2,-1.129180342E-1
1.623552422E0,-3.536677957E-1,-1.187769845E-1,-1.342233270E-1
1.625583076E0,-4.809668958E-1,-1.890844405E-1,-1.022653878E-1
1.627715307E0,-5.560680628E-1,-1.832254827E-1,-2.396845073E-2
1.630084222E0,-5.475459099E-1,-6.551376730E-2,1.107875034E-1
1.631751153E0,-4.687163532E-1,2.876213938E-2,1.656486243E-1
1.633903884E0,-3.472762108E-1,6.924218684E-2,1.778991669E-1
1.635676691E0,-1.992044598E-1,8.042746782E-2,1.379517466E-1
1.638227884E0,-2.609897964E-2,5.912217870E-2,7.882957160E-2
1.639579922E0,1.363538504E-1,-5.326322466E-2,7.030745596E-2
1.642160960E0,2.727077007E-1,-8.522115648E-3,6.125270575E-2
1.643742037E0,4.287689328E-1,-9.161274135E-2,1.278317273E-1
1.646245922E0,6.056028605E-1,-1.278317273E-1,1.810949594E-1
1.648079230E0,7.499461770E-1,-6.604639441E-2,1.938781291E-1
1.650622722E0,8.314388990E-1,-4.793690145E-2,2.013349831E-1
1.652320999E0,8.133293986E-1,7.243798673E-2,1.587243974E-1
1.654697722E0,6.988134980E-1,1.597896665E-1,1.006674916E-1
1.655993230E0,5.134574771E-1,1.938781291E-1,4.261057824E-2
1.658766338E0,2.737729549E-1,1.896170676E-1,-2.024002373E-2
1.660068499E0,1.225054078E-2,8.788431436E-2,-4.793690145E-2
1.662869568E0,-2.338255495E-1,-6.125270575E-2,-4.420847446E-2
1.664282537E0,-4.277036786E-1,-1.688444167E-1,-4.048004746E-2
1.666972530E0,-5.390238166E-1,-2.567287385E-1,-1.864212751E-2
1.668279460E0,-5.725796223E-1,-2.860234976E-1,1.704423130E-2
1.671075799E0,-5.315669775E-1,-2.205097377E-1,6.072007492E-2
1.673169537E0,-3.813646734E-1,-5.113269389E-2,9.960222989E-2
1.675122645E0,-3.243730366E-1,2.609897964E-2,9.693906456E-2
1.676384691E0,-2.045307755E-1,1.416801661E-1,6.924218684E-2
1.679191299E0,-7.563377917E-2,1.853560209E-1,2.024002373E-2
1.680558499E0,6.018744037E-2,1.432780623E-1,-3.834952042E-2
1.683251338E0,2.572613657E-1,1.278317347E-2,-8.149272949E-2
1.684485037E0,3.664509654E-1,-8.575379103E-2,-4.580637068E-2
1.687215384E0,4.585963488E-1,-1.400822699E-1,2.663161233E-2
1.688483153E0,5.320996046E-1,-1.448759735E-1,9.693906456E-2
1.691342684E0,5.720469952E-1,-7.137271762E-2,1.358212233E-1
1.693066537E0,5.581985712E-1,1.970739290E-2,1.379517466E-1
1.694953268E0,4.862932265E-1,8.415589482E-2,1.102548689E-1
1.696743768E0,3.691141307E-1,1.214401498E-1,5.539375171E-2
1.699443230E0,2.210423797E-1,1.123853996E-1,-9.054748341E-3
1.700897999E0,3.568635881E-2,7.936219871E-2,-5.752427876E-2
1.703631953E0,-1.715075821E-1,3.781688958E-2,-7.776430249E-2
1.705047960E0,-3.744404614E-1,9.054748341E-3,-8.096009493E-2
1.707473230E0,-5.342301130E-1,-9.054748341E-3,-6.977482140E-2
1.709149307E0,-6.434197426E-1,-3.568635881E-2,-4.474110901E-2
1.711838953E0,-7.020092607E-1,-6.072007492E-2,-1.012001187E-2
1.713288614E0,-7.105314136E-1,-7.669904083E-2,3.195793182E-2
1.715436730E0,-6.583334208E-1,-7.403588295E-2,6.178534031E-2
1.717071730E0,-5.432848930E-1,-6.072007492E-2,6.444849819E-2
1.719549730E0,-4.048005044E-1,-2.929477207E-2,5.273059011E-2
1.721302153E0,-2.434129268E-1,-2.024002373E-2,4.687163606E-2
1.723603460E0,-5.273059011E-2,-8.522115648E-3,3.888215125E-2
1.725309614E0,1.539307088E-1,-8.522115648E-3,4.261057824E-2
1.727766499E0,3.584614992E-1,-1.331580617E-2,6.125270575E-2
1.729409576E0,5.342301130E-1,-4.154531285E-2,9.161274135E-2
1.732252568E0,6.716492176E-1,-5.219795927E-2,1.049285457E-1
1.734004076E0,7.440872192E-1,1.278317347E-2,6.977482140E-2
1.736336568E0,7.158577442E-1,4.953479767E-2,5.006742850E-2
1.737640114E0,5.864281058E-1,1.171790883E-1,1.491370238E-2
1.740404837E0,3.840278387E-1,1.603222936E-1,-1.544633508E-2
1.741642230E0,1.427454352E-1,1.784317940E-1,-4.474110901E-2
1.744509222E0,-2.492718846E-1,4.474110901E-2,-3.994741663E-2
1.745752037E0,-4.857605994E-1,-9.906959534E-2,-1.757686399E-2
1.748612337E0,-6.396912932E-1,-2.386192381E-1,-7.456851192E-3
1.749905499E0,-7.062703371E-1,-2.977414131E-1,-9.587380104E-3
1.752715876E0,-7.084008455E-1,-2.822950780E-1,1.438106969E-2
1.754586883E0,-6.583334208E-1,-1.651159972E-1,4.367584363E-2
1.756759876E0,-5.496764779E-1,-2.716424316E-2,7.456851006E-2
1.757955345E0,-4.048005044E-1,9.747169912E-2,8.841694891E-2
1.760828876E0,-2.455434501E-1,1.640507281E-1,7.563377917E-2
1.762073383E0,-9.427590668E-2,1.699096859E-1,3.568635881E-2
1.764932607E0,5.060006306E-2,1.012001261E-1,-1.065264456E-2
1.766192691E0,1.938781291E-1,-5.326322280E-3,-4.580637068E-2
1.768938691E0,3.169161677E-1,-8.309062570E-2,-4.953479767E-2
1.770437114E0,4.122573435E-1,-1.102548689E-1,-1.065264456E-2
1.773139953E0,4.612595141E-1,-9.427590668E-2,6.231797114E-2
1.774850307E0,4.777711034E-1,-2.929477207E-2,1.219727769E-1
1.776694230E0,4.538026452E-1,5.379585549E-2,1.470064968E-1
1.778576037E0,3.765709996E-1,1.059938148E-1,1.358212233E-1
1.780987460E0,2.460760921E-1,1.166464612E-1,9.906959534E-2
1.782592037E0,8.468852192E-2,6.924218684E-2,5.273059011E-2
1.785019960E0,-8.522115648E-2,-5.326322280E-3,7.456851192E-3
1.786691383E0,-2.450108230E-1,-6.391586363E-2,-1.810949668E-2
1.789154499E0,-3.872236311E-1,-7.563377917E-2,-2.237055451E-2
1.790810922E0,-4.905542731E-1,-6.817692518E-2,3.728425596E-3
1.793625645E0,-5.310343504E-1,-5.645901710E-2,3.728425503E-2
1.795109614E0,-4.868258536E-1,-2.343581803E-2,7.829693705E-2
1.797223922E0,-4.069310129E-1,6.391586736E-3,8.255799860E-2
1.798933768E0,-3.579288721E-1,1.597896591E-2,7.776430249E-2
1.801431691E0,-1.837581247E-1,4.048004746E-2,4.314320907E-2
1.803005460E0,-5.432848632E-2,6.711166352E-2,1.171790902E-2
1.805440883E0,7.137271762E-2,5.539375171E-2,9.587380104E-3
1.807199422E0,1.821602285E-1,4.048004746E-2,3.195793182E-2
1.809589114E0,2.908172011E-1,2.396845073E-2,6.018744037E-2
1.811237883E0,3.739078343E-1,1.704423130E-2,7.456851006E-2
1.814061376E0,4.186489284E-1,2.183792181E-2,7.137271762E-2
1.815704114E0,4.048005044E-1,5.006742850E-2,5.486112088E-2
1.818138914E0,3.398193717E-1,8.042746782E-2,2.556634694E-2
1.819587307E0,2.487392575E-1,1.012001261E-1,3.728425596E-3
1.822206145E0,1.331580579E-1,7.350324839E-2,6.391586736E-3
1.823483653E0,1.491370238E-2,3.302319720E-2,3.515372798E-2
1.826308068E0,-8.681905270E-2,-4.527373984E-2,7.456851006E-2
1.827577883E0,-1.326254308E-1,-1.368864775E-1,1.065264493E-1
1.830410299E0,-1.155811921E-1,-1.880191714E-1,1.091896072E-1
1.831727499E0,-5.166532472E-2,-1.938781291E-1,9.108011425E-2
1.834512414E0,3.834952042E-2,-1.288969964E-1,6.657902896E-2
1.836338768E0,1.214401498E-1,8.202536404E-2,5.113269389E-2
1.838550029E0,1.230380461E-1,1.661812514E-1,4.846953228E-2
1.839802306E0,1.038632840E-1,2.860234976E-1,3.568635881E-2
1.842618260E0,9.693906456E-2,2.854908705E-1,3.195793368E-3
1.844091730E0,1.230380461E-1,1.528654546E-1,-4.101268202E-2
1.846722222E0,1.502022892E-1,-1.331580617E-2,-7.297061384E-2
1.848146653E0,1.661812514E-1,-1.422128081E-1,-6.444849819E-2
1.850781883E0,1.603222936E-1,-2.029328793E-1,-1.864212751E-2
1.852148460E0,1.448759735E-1,-1.416801661E-1,2.929477207E-2
1.854928260E0,1.193096191E-1,3.408846259E-2,6.391586363E-2
1.856831345E0,7.669904083E-2,1.379517466E-1,5.113269389E-2
1.858505883E0,-3.728425596E-3,1.938781291E-1,1.438106969E-2
1.860267883E0,-1.145159304E-1,1.848233789E-1,-3.249056637E-2
1.862712960E0,-2.386192381E-1,1.113201380E-1,-8.255799860E-2
1.864436922E0,-3.403519988E-1,-1.331580617E-2,-1.209075153E-1
1.866883460E0,-3.994741738E-1,-1.070590764E-1,-1.459412277E-1
1.868488537E0,-4.127899706E-1,-1.278317273E-1,-1.379517466E-1
1.870882499E0,-4.000068009E-1,-8.894958347E-2,-8.468852192E-2
1.872866345E0,-3.542004228E-1,6.391586736E-3,-3.195793368E-3
1.875401952E0,-2.790992856E-1,8.149272949E-2,8.468852192E-2
1.876780230E0,-1.747033745E-1,9.906959534E-2,1.384843737E-1
1.879110114E0,-3.621899337E-2,5.273059011E-2,1.320927888E-1
1.880845922E0,1.134506613E-1,-4.154531285E-2,7.989483327E-2
1.883282999E0,2.535329461E-1,-9.800432622E-2,8.522115648E-3
1.884894537E0,3.792341352E-1,-1.017327532E-1,-3.515372798E-2
1.887338537E0,4.953479767E-1,-8.202536404E-2,-1.384843793E-2
1.889019422E0,5.981460214E-1,-1.491370238E-2,4.367584363E-2
1.891583191E0,6.828345060E-1,4.687163606E-2,1.113201380E-1
1.893234768E0,7.339671850E-1,6.764429063E-2,1.539307088E-1
1.895936837E0,7.334345579E-1,6.657902896E-2,1.390170157E-1
1.897717306E0,5.906891227E-1,4.261057824E-2,3.355583176E-2
1.900009760E0,5.017395616E-1,3.888215125E-2,-7.456851192E-3
1.901391383E0,2.902845740E-1,3.834952042E-2,-7.190535218E-2
1.904077144E0,-4.207794741E-2,-7.456851192E-3,-8.042746782E-2
1.905401422E0,-2.189118415E-1,-8.362326026E-2,-3.621899337E-2
1.908179491E0,-3.233077526E-1,-1.693770438E-1,1.225054078E-2
1.909649999E0,-3.595267534E-1,-2.487392575E-1,3.568635881E-2
1.912282606E0,-3.169161677E-1,-1.997370869E-1,7.989482954E-3
1.913580153E0,-2.300971150E-1,-1.853560209E-1,-4.261057824E-3
1.916386183E0,-1.464738697E-1,-2.237055451E-2,-5.326322466E-2
1.918274999E0,-6.604639441E-2,1.986718178E-1,-8.894958347E-2
1.920434183E0,-1.544633508E-2,1.944107562E-1,-5.539375171E-2
1.921702537E0,1.491370238E-2,2.711097896E-1,-7.456851006E-2
1.924501914E0,6.285060197E-2,1.789644361E-1,-8.096009493E-2
1.925854768E0,1.145159304E-1,-2.982740477E-2,-7.616640627E-2
1.928604760E0,1.549959779E-1,-9.960222989E-2,-1.091896072E-1
1.929908153E0,2.039981484E-1,-2.045307755E-1,-9.960222989E-2
1.932602960E0,2.583266199E-1,-1.896170676E-1,-7.776430249E-2
1.934004691E0,3.089267015E-1,-8.788431436E-2,-4.207794741E-2
1.936810183E0,3.446130455E-1,3.195793182E-2,-3.195793368E-3
1.938511576E0,3.499393761E-1,1.528654546E-1,3.036003746E-2
1.940364922E0,3.339604139E-1,1.464738697E-1,2.929477207E-2
1.942153076E0,2.865561247E-1,1.161138266E-1,-3.195793368E-3
1.944608729E0,2.263686955E-1,4.261057824E-3,-5.752427876E-2
1.946294691E0,1.864212751E-1,-1.384843737E-1,-1.118527651E-1
1.949077414E0,1.763012707E-1,-2.482066154E-1,-1.475391239E-1
1.950389037E0,1.747033745E-1,-2.183792144E-1,-1.544633508E-1
1.952768306E0,1.512675583E-1,-6.551376730E-2,-1.118527651E-1
1.954530268E0,1.187769845E-1,9.267801046E-2,-3.089267015E-2
1.957284529E0,1.006674916E-1,1.917476058E-1,3.408846259E-2
1.958646729E0,9.321063757E-2,1.693770438E-1,-7.989482954E-3
1.961080229E0,5.805691332E-2,8.096009493E-2,-7.350324839E-2
1.962795960E0,-1.331580617E-2,-1.757686399E-2,-1.342233270E-1
1.965288037E0,-6.231797114E-2,-9.161274135E-2,-1.778991669E-1
1.966832729E0,-5.432848632E-2,-1.475391239E-1,-1.789644361E-1
1.969172537E0,-3.195793368E-3,-1.571265012E-1,-1.299622655E-1
1.970922806E0,6.764429063E-2,-1.251685768E-1,-4.367584363E-2
1.973423306E0,1.374191195E-1,-4.740426689E-2,3.355583176E-2
1.975037691E0,1.800296903E-1,8.575379103E-2,4.580637068E-2
1.977832029E0,1.709749401E-1,1.805623323E-1,6.924218964E-3
1.979664345E0,1.182443574E-1,1.699096859E-1,-6.498113275E-2
1.981923683E0,5.113269389E-2,1.134506613E-1,-1.672465205E-1
1.983327037E0,-1.331580617E-2,3.675162420E-2,-2.609897852E-1
1.985992336E0,-7.989483327E-2,-4.101268202E-2,-2.876214087E-1
1.987460153E0,-1.390170157E-1,-9.693906456E-2,-2.290318608E-1
1.990095529E0,-1.427454352E-1,-1.145159304E-1,-1.283643693E-1
1.991354768E0,-7.616640627E-2,-8.628641814E-2,-4.580637068E-2
1.994198836E0,5.166532472E-2,-5.166532472E-2,1.118527725E-2
1.995649537E0,1.949433982E-1,-8.894958347E-2,5.113269389E-2
1.998302106E0,3.094593287E-1,-5.432848632E-2,2.929477207E-2
2.000115383E0,3.739078343E-1,4.633900523E-2,-4.846953228E-2
2.002340336E0,3.595267534E-1,8.681905270E-2,-7.403588295E-2
2.003586653E0,3.057309091E-1,1.203748807E-1,-1.129180342E-1
2.006408990E0,2.439455539E-1,9.800432622E-2,-1.528654546E-1
2.007735614E0,2.109223604E-1,2.290318534E-2,-1.826928556E-1
2.010512221E0,1.747033745E-1,-1.219727769E-1,-1.613875628E-1
2.011794268E0,1.438107044E-1,-1.603222936E-1,-1.102548689E-1
2.014584845E0,9.906959534E-2,-1.017327532E-1,-6.338323653E-2
2.015999614E0,4.261057824E-2,-7.616640627E-2,-2.130528912E-2
2.018717952E0,-1.012001187E-2,9.587380104E-3,-3.302319720E-2
2.020447960E0,-7.190535218E-2,5.858954415E-2,-7.510114461E-2
2.022272229E0,-1.619201899E-1,2.237055451E-2,-1.086569726E-1
2.024112268E0,-2.572613657E-1,5.326322280E-4,-1.555286050E-1
2.026529691E0,-3.398193717E-1,-1.810949668E-2,-2.050634027E-1
2.028159999E0,-3.749730885E-1,-8.628641814E-2,-2.135855258E-1
2.030756460E0,-3.478088379E-1,-1.416801661E-1,-2.215750068E-1
2.032270691E0,-2.663161159E-1,-1.874865443E-1,-1.970739216E-1
2.034814691E0,-1.310275346E-1,-2.636529505E-1,-1.715075821E-1
2.036343999E0,-1.384843793E-2,4.261057824E-3,-2.151834220E-1
2.039116259E0,1.241033077E-1,-1.155811921E-1,-1.379517466E-1
2.040545306E0,2.359560728E-1,1.810949668E-2,-1.608549356E-1
2.042737653E0,2.982740402E-1,2.013349831E-1,-2.253034264E-1
2.044648383E0,3.126551211E-1,4.687163606E-2,-1.794970632E-1
2.046904076E0,2.886866629E-1,4.527373984E-2,-2.087918371E-1
2.048597691E0,2.540655732E-1,-1.704423130E-2,-2.151834220E-1
2.050899614E0,2.338255495E-1,-2.759034932E-1,-1.528654546E-1
2.052697845E0,2.258360684E-1,-3.707120419E-1,-1.299622655E-1
2.055225268E0,2.300971150E-1,-4.106594622E-1,-1.070590764E-1
2.056906229E0,2.130528986E-1,-3.078614175E-1,-1.187769845E-1
2.059548144E0,1.880191714E-1,-1.810949594E-1,-1.182443574E-1
2.061802614E0,1.358212233E-1,2.609897964E-2,-1.821602285E-1
2.063615798E0,1.102548689E-1,1.225054115E-1,-2.231729031E-1
2.064842922E0,1.970739290E-2,1.219727769E-1,-2.545982003E-1
2.067683990E0,-1.491370201E-1,-1.810949668E-2,-2.519350350E-1
2.069040614E0,-2.364887148E-1,-1.411475390E-1,-2.460760921E-1
2.071786952E0,-2.806971967E-1,-2.982740402E-1,-2.173139453E-1
2.073311768E0,-2.641855776E-1,-4.335626364E-1,-1.784317940E-1
2.075889990E0,-1.672465205E-1,-4.394215941E-1,-1.619201899E-1
2.077174922E0,-9.587380104E-3,-3.595267534E-1,-1.475391239E-1
2.079992452E0,1.400822699E-1,-1.704423130E-1,-1.347559541E-1
2.081917422E0,2.434129268E-1,1.544633508E-2,-9.853696078E-2
2.084031298E0,3.105245829E-1,1.427454352E-1,-7.936219871E-2
2.085294076E0,3.499393761E-1,1.459412277E-1,-9.747169912E-2
2.088099221E0,3.653857112E-1,1.597896684E-3,-1.331580579E-1
2.089633422E0,3.494067490E-1,-2.039981484E-1,-1.853560209E-1
2.092201067E0,3.195793331E-1,-3.739078343E-1,-2.306297570E-1
2.093608422E0,2.796319127E-1,-4.340952635E-1,-2.396845073E-1
2.096237076E0,2.173139453E-1,-3.499393761E-1,-2.157160491E-1
2.097702383E0,1.507349163E-1,-1.912149638E-1,-1.651159972E-1
2.100407221E0,1.129180342E-1,-7.616640627E-2,-1.139832959E-1
2.102285229E0,5.113269389E-2,2.343581803E-2,-1.065264493E-1
2.103951114E0,4.261057824E-3,1.864212751E-2,-1.134506613E-1
2.105939845E0,-1.155811921E-1,-5.965480953E-2,-1.438107044E-1
2.108227922E0,-2.284992188E-1,-2.018676102E-1,-1.992044598E-1
2.109858383E0,-2.988066673E-1,-3.440804183E-1,-2.727077007E-1
2.112418422E0,-3.158509135E-1,-4.143878818E-1,-3.328951299E-1
2.114127806E0,-2.972087860E-1,-3.984089196E-1,-3.355582952E-1
2.116406037E0,-2.524676621E-1,-2.876214087E-1,-2.886866629E-1
2.118116345E0,-1.800296903E-1,-1.086569726E-1,-2.306297570E-1
2.120864836E0,-8.735168725E-2,1.917476021E-2,-1.731054783E-1
2.122235460E0,4.474110901E-2,6.178534031E-2,-1.656486243E-1
2.124638114E0,1.017327532E-1,-3.089267015E-2,-1.944107562E-1
2.126307845E0,1.320927888E-1,-1.480717659E-1,-2.311623842E-1
2.128997614E0,1.475391239E-1,-2.924150825E-1,-2.306297570E-1
2.130449576E0,1.810949594E-1,-4.271710515E-1,-1.832254827E-1
2.132820883E0,2.428802997E-1,-4.767058492E-1,-1.123853996E-1
2.134497037E0,3.233077526E-1,-4.708468914E-1,-4.101268202E-2
2.137011499E0,4.138552547E-1,-3.866910040E-1,-5.326322280E-3
2.138811806E0,4.852279723E-1,-2.412824035E-1,-2.130528912E-2
2.141400528E0,4.846953154E-1,-6.125270575E-2,-8.522115648E-2
2.143295383E0,4.170510471E-1,7.510114461E-2,-1.603222936E-1
2.145473182E0,3.014698327E-1,9.800432622E-2,-2.311623842E-1
2.146822114E0,1.661812514E-1,5.486112088E-2,-2.892192900E-1
2.149541220E0,2.609897964E-2,-9.427590668E-2,-2.886866629E-1
2.150926422E0,-1.182443574E-1,-2.545982003E-1,-2.396845073E-1
2.153643797E0,-2.290318608E-1,-3.605920076E-1,-1.747033745E-1
2.155011345E0,-2.716424465E-1,-4.463458061E-1,-1.102548689E-1
2.157746144E0,-2.300971150E-1,-4.266384244E-1,-8.575379103E-2
2.159419845E0,-1.336906850E-1,-3.595267534E-1,-8.415589482E-2
2.161848528E0,-2.237055451E-2,-2.269013226E-1,-9.267801046E-2
2.163704114E0,8.202536404E-2,1.065264456E-3,-1.129180342E-1
2.165896567E0,9.747169912E-2,6.711166352E-2,-1.246359423E-1
2.167209999E0,1.139832959E-1,9.693906456E-2,-1.518001854E-1
2.169964605E0,1.342233270E-1,1.331580617E-2,-1.874865443E-1
2.171401383E0,1.560612470E-1,-1.347559541E-1,-2.226402760E-1
2.174067413E0,1.741707325E-1,-3.067961633E-1,-2.247707993E-1
2.175412268E0,2.039981484E-1,-4.319647253E-1,-1.608549356E-1
2.178128999E0,2.205097377E-1,-3.739078343E-1,-1.043959185E-1
2.179505499E0,2.189118415E-1,-2.311623842E-1,-5.592638254E-2
2.182271490E0,1.890844405E-1,-1.033306494E-1,-2.609897964E-2
2.184103152E0,1.347559541E-1,-1.012001187E-2,-4.048004746E-2
2.185856345E0,5.379585549E-2,1.278317347E-2,-9.534116834E-2
2.187833383E0,-4.314320907E-2,-5.592638254E-2,-1.619201899E-1
2.190070575E0,-1.475391239E-1,-1.885518134E-1,-2.098570913E-1
2.191712652E0,-2.226402760E-1,-2.860234976E-1,-2.535329461E-1
2.194192191E0,-2.577939928E-1,-3.185140789E-1,-2.679139972E-1
2.195811114E0,-2.519350350E-1,-2.886866629E-1,-2.444781959E-1
2.198244806E0,-2.162486911E-1,-2.013349831E-1,-1.832254827E-1
2.199985191E0,-1.539307088E-1,-8.202536404E-2,-1.171790883E-1
2.202733759E0,-7.936219871E-2,1.810949668E-2,-7.403588295E-2
2.204112229E0,-2.609897964E-2,4.633900523E-2,-5.486112088E-2
2.206498191E0,6.924218964E-3,3.355583176E-2,-7.137271762E-2
2.208284499E0,1.810949668E-2,-6.178534031E-2,-9.321063757E-2
2.210750652E0,3.302319720E-2,-1.853560209E-1,-1.001348570E-1
2.212501037E0,6.444849819E-2,-3.121224940E-1,-7.723167539E-2
2.214844806E0,1.193096191E-1,-3.611246645E-1,-2.609897964E-2
2.216394691E0,1.912149638E-1,-3.579288721E-1,4.314320907E-2
2.218812306E0,2.716424465E-1,-2.833603323E-1,9.374327213E-2
2.220488345E0,3.472762108E-1,-1.193096191E-1,7.669904083E-2
2.223275489E0,3.840278387E-1,9.108011425E-2,6.391586736E-3
2.225129460E0,3.270362020E-1,1.784317940E-1,-4.048004746E-2
2.227356528E0,2.103897333E-1,1.821602285E-1,-6.711166352E-2
2.228648537E0,6.551376730E-2,8.202536404E-2,-5.912217870E-2
2.231424605E0,-8.202536404E-2,-5.752427876E-2,-3.621899337E-2
2.232718306E0,-2.135855258E-1,-2.002697140E-1,-5.326322280E-4
2.235527682E0,-2.673813701E-1,-3.323625028E-1,2.876213938E-2
2.236864960E0,-2.253034264E-1,-3.680488765E-1,2.929477207E-2
2.239630874E0,-1.118527651E-1,-3.153182864E-1,2.450108156E-2
2.241190768E0,3.195793182E-2,-1.725728363E-1,2.822950855E-2
2.243734105E0,1.438107044E-1,6.338323653E-2,3.994741663E-2
2.245786652E0,1.821602285E-1,2.838929892E-1,5.965480953E-2
2.247772643E0,1.544633508E-1,3.904194236E-1,6.870955974E-2
2.249081999E0,1.166464612E-1,3.222424984E-1,3.888215125E-2
2.251840220E0,9.161274135E-2,9.800432622E-2,-7.456851192E-3
2.253214191E0,6.338323653E-2,-1.928128600E-1,-3.462109342E-2
2.255942528E0,7.456851192E-3,-3.712446690E-1,-2.876213938E-2
2.257297460E0,-5.219795927E-2,-3.579288721E-1,1.597896684E-3
2.259961075E0,-7.456851006E-2,-2.695119083E-1,6.657902896E-2
2.261811729E0,-5.752427876E-2,-8.042746782E-2,1.065264493E-1
2.264145989E0,-2.556634694E-2,1.161138266E-1,1.283643693E-1
2.265896345E0,-6.977482140E-2,2.721750736E-1,1.427454352E-1
2.267918691E0,-1.081243455E-1,2.695119083E-1,1.363538504E-1
2.269553422E0,-1.853560209E-1,1.368864775E-1,9.214537591E-2
2.272065152E0,-2.215750068E-1,-2.024002373E-2,-1.278317347E-2
2.273624883E0,-2.231729031E-1,-1.448759735E-1,-1.198422536E-1
2.276103729E0,-2.151834220E-1,-2.125202566E-1,-1.358212233E-1
2.277873998E0,-1.965412945E-1,-1.912149638E-1,-5.166532472E-2
2.280072883E0,-6.125270575E-2,-2.556634694E-2,1.187769845E-1
2.281900652E0,7.137271762E-2,1.368864775E-1,1.624528319E-1
2.284595835E0,1.741707325E-1,2.348908186E-1,1.475391239E-1
2.286121498E0,2.125202566E-1,2.785666585E-1,8.575379103E-2
2.288238960E0,1.874865443E-1,2.705771625E-1,1.331580617E-2
2.290110806E0,1.246359423E-1,1.384843737E-1,-1.597896684E-3
2.292389960E0,7.403588295E-2,-6.125270575E-2,3.994741663E-2
2.293999422E0,6.657902896E-2,-2.822950780E-1,1.145159304E-1
2.296358460E0,6.657902896E-2,-3.595267534E-1,1.715075821E-1
2.298141383E0,2.982740477E-2,-2.082591951E-1,1.757686287E-1
2.300717883E0,-5.326322466E-2,-5.326322280E-4,1.587243974E-1
2.302247229E0,-1.352885813E-1,2.189118415E-1,1.054611802E-1
2.305030258E0,-1.896170676E-1,3.254382908E-1,4.154531285E-2
2.306680922E0,-2.263686955E-1,2.801645398E-1,9.054748341E-3
2.309099374E0,-2.849582434E-1,1.304948926E-1,3.515372798E-2
2.310415998E0,-3.584614992E-1,-4.953479767E-2,1.012001261E-1
2.313167643E0,-3.930825889E-1,-1.672465205E-1,1.395496428E-1
2.314467114E0,-3.275688291E-1,-2.135855258E-1,1.288969964E-1
2.317269797E0,-1.683117896E-1,-2.498045117E-1,1.203748807E-1
2.318559960E0,4.740426689E-2,-2.210423797E-1,1.315601617E-1
2.321372374E0,2.860234976E-1,-1.177117229E-1,1.672465205E-1
2.322735998E0,4.799016416E-1,4.420847446E-2,2.114549875E-1
2.325474835E0,5.667206645E-1,2.370213419E-1,2.364887148E-1
2.327354152E0,5.225121975E-1,3.632551730E-1,1.715075821E-1
2.329517258E0,4.825648069E-1,3.344930410E-1,1.177117229E-1
2.331068883E0,3.888215125E-1,1.789644361E-1,-5.858954508E-3
2.333585104E0,2.556634545E-1,-1.970739290E-2,-1.033306494E-1
2.334874998E0,7.829693705E-2,-1.358212233E-1,-1.358212233E-1
2.337688104E0,-2.146507949E-1,-1.667138934E-1,-3.089267015E-2
2.339110345E0,-3.755057156E-1,-1.017327532E-1,6.551376730E-2
2.341718575E0,-4.729774296E-1,2.663161140E-3,1.177117229E-1
2.343099422E0,-5.267732739E-1,5.432848632E-2,1.225054115E-1
2.345892874E0,-5.544701219E-1,3.941478580E-2,1.139832959E-1
2.347890575E0,-5.619270205E-1,-5.858954415E-2,1.107875034E-1
2.349497729E0,-5.198490620E-1,-1.544633508E-1,9.587380290E-2
2.351487922E0,-4.330300093E-1,-2.284992188E-1,7.243798673E-2
2.353748229E0,-3.014698327E-1,-1.981391907E-1,1.544633508E-2
2.355483729E0,-1.374191195E-1,-9.747169912E-2,-4.793690145E-2
2.357906768E0,4.207794741E-2,4.154531285E-2,-9.054747969E-2
2.359804114E0,2.077265680E-1,1.949433982E-1,-8.309062570E-2
2.362071075E0,3.312972486E-1,2.796319127E-1,-1.331580617E-2
2.363743652E0,3.920173049E-1,2.753708661E-1,8.202536404E-2
2.366362874E0,4.095941782E-1,1.352885813E-1,1.661812514E-1
2.367900960E0,3.733751774E-1,-4.101268202E-2,1.784317940E-1
2.370126922E0,2.514024079E-1,-1.235706806E-1,1.054611802E-1
2.371792152E0,5.752427876E-2,-1.613875628E-1,2.237055451E-2
2.374288383E0,-1.533980817E-1,-1.251685768E-1,-3.621899337E-2
2.375932729E0,-3.254382908E-1,-4.207794741E-2,-6.072007492E-2
2.378343037E0,-4.218447208E-1,1.864212751E-2,-3.728425503E-2
2.379931268E0,-4.468784332E-1,4.793690145E-2,2.183792181E-2
2.382372191E0,-4.149205089E-1,2.609897964E-2,9.267801046E-2
2.384055229E0,-3.350256681E-1,1.544633508E-2,1.246359423E-1
2.386847873E0,-2.130528986E-1,2.769687586E-2,1.166464612E-1
2.388609806E0,4.793690145E-2,-1.246359423E-1,1.560612470E-1
2.390920066E0,2.705771625E-1,-2.359560728E-1,2.103897333E-1
2.392222768E0,5.065332651E-1,-2.902845740E-1,2.577939928E-1
2.394987450E0,6.982808709E-1,-2.636529505E-1,2.785666585E-1
2.396309729E0,8.048073053E-1,-1.272991002E-1,2.545982003E-1
2.399089720E0,8.202536106E-1,7.403588295E-2,1.597896665E-1
2.400376268E0,7.595335841E-1,2.721750736E-1,1.225054078E-2
2.403192873E0,6.226470470E-1,3.909520507E-1,-1.251685768E-1
2.404795960E0,3.994741738E-1,4.005394280E-1,-1.901497096E-1
2.407296143E0,9.747169912E-2,2.844256163E-1,-1.747033745E-1
2.409315037E0,-2.535329461E-1,1.187769845E-1,-1.187769845E-1
2.411342219E0,-5.890912414E-1,-5.645901710E-2,-6.178534031E-2
2.412683421E0,-8.186557293E-1,-3.073287904E-1,-1.384843793E-2
2.415409989E0,-9.251821637E-1,-4.857605994E-1,-7.456851192E-3
2.416729345E0,-9.395632744E-1,-5.342301130E-1,-3.728425596E-3
2.419512527E0,-8.404936790E-1,-4.655205607E-1,-7.456851192E-3
2.421139652E0,-6.348975897E-1,-2.029328793E-1,-4.687163606E-2
2.423615412E0,-4.037352204E-1,9.534116834E-2,-6.338323653E-2
2.424956114E0,-1.928128600E-1,3.259709179E-1,-4.580637068E-2
2.427718219E0,-3.036003746E-2,4.063983858E-1,-1.331580617E-2
2.429583537E0,2.354234457E-1,1.422128081E-1,-1.491370238E-2
2.431351306E0,3.238403797E-1,-6.924218964E-3,-3.834952042E-2
2.433084768E0,4.612595141E-1,-2.519350350E-1,-1.022653878E-1
2.435579191E0,5.070658922E-1,-3.834952116E-1,-1.320927888E-1
2.437231806E0,4.665858448E-1,-3.307646215E-1,-1.145159304E-1
2.439785498E0,3.834952116E-1,-1.288969964E-1,-6.551376730E-2
2.441448075E0,2.684466541E-1,1.235706806E-1,1.065264456E-3
2.443873152E0,6.977482140E-2,2.455434501E-1,9.321063757E-2
2.445423614E0,-6.551376730E-2,1.214401498E-1,1.012001261E-1
2.448194527E0,-1.986718178E-1,6.924218964E-3,2.024002373E-2
2.449659575E0,-3.227751255E-1,-1.299622655E-1,-7.350324839E-2
2.451960768E0,-3.552657068E-1,-3.296993375E-1,-1.049285457E-1
2.453748075E0,-2.423476577E-1,-4.905542731E-1,-7.084008306E-2
2.456120229E0,-2.024002373E-2,-4.788363874E-1,9.054748341E-3
2.457823191E0,2.508697808E-1,-3.360909224E-1,1.310275346E-1
2.460146537E0,4.751079381E-1,-1.320927888E-1,2.609897852E-1
2.462057960E0,6.183860302E-1,1.230380461E-1,2.924150825E-1
2.464526152E0,6.801713705E-1,3.557983339E-1,1.768338978E-1
2.466007729E0,6.519418359E-1,4.175836742E-1,-6.391586736E-3
2.468735758E0,5.400890708E-1,2.588592768E-1,-1.528654546E-1
2.470564191E0,2.711097896E-1,-6.924218684E-2,-2.221076339E-1
2.472817604E0,1.672465205E-1,-1.661812514E-1,-1.864212751E-1
2.474069114E0,-3.462109342E-2,-3.605920076E-1,-5.166532472E-2
2.476885373E0,-1.832254827E-1,-4.516721368E-1,9.161274135E-2
2.478189498E0,-2.540655732E-1,-4.218447208E-1,1.379517466E-1
2.480987758E0,-2.418150306E-1,-2.535329461E-1,5.752427876E-2
2.482338960E0,-2.114549875E-1,-7.137271762E-2,-5.539375171E-2
2.485089681E0,-2.210423797E-1,9.747169912E-2,-1.464738697E-1
2.486542152E0,-2.737729549E-1,2.482066154E-1,-2.008023560E-1
2.489191719E0,-3.488741219E-1,2.870887816E-1,-2.178465873E-1
2.491005921E0,-4.165183902E-1,5.912217870E-2,-2.146507949E-1
2.493231296E0,-4.229099751E-1,-4.420847446E-2,-2.178465873E-1
2.494566229E0,-4.250405133E-1,-2.098570913E-1,-2.311623842E-1
2.497298988E0,-4.452805519E-1,-2.801645398E-1,-1.970739216E-1
2.498621960E0,-4.213120937E-1,-2.902845740E-1,-1.166464612E-1
2.501401642E0,-3.350256681E-1,-2.125202566E-1,-7.190535218E-2
2.502684960E0,-1.954760253E-1,-5.273059011E-2,-9.427590668E-2
2.505460306E0,-5.752427876E-2,9.108011425E-2,-1.203748807E-1
2.506838152E0,3.089267015E-2,1.869539171E-1,-1.107875034E-1
2.509605873E0,6.870955974E-2,2.476739883E-1,-6.498113275E-2
2.511343498E0,1.097222418E-1,1.667138934E-1,1.597896591E-2
2.513261152E0,2.460760921E-1,-1.033306494E-1,1.001348570E-1
2.514970844E0,4.703142643E-1,-4.639226794E-1,1.496696621E-1
2.517473037E0,6.993461251E-1,-6.279733777E-1,1.251685768E-1
2.519083729E0,8.538094759E-1,-5.187838078E-1,5.539375171E-2
2.521609844E0,8.942894936E-1,-1.778991669E-1,-1.704423130E-2
2.523286306E0,8.325041533E-1,3.467435837E-1,-9.214537591E-2
2.525803460E0,6.902913451E-1,6.727145314E-1,-9.374327213E-2
2.527540383E0,4.910869002E-1,7.568703890E-1,-5.326322466E-2
2.530072642E0,2.295644879E-1,5.438175201E-1,1.970739290E-2
2.531587575E0,-6.072007492E-2,8.788431436E-2,8.681905270E-2
2.533796306E0,-3.339604139E-1,-4.303668439E-1,1.187769845E-1
2.535570075E0,-5.464806557E-1,-7.579356432E-1,6.338323653E-2
2.537863844E0,-6.380934119E-1,-7.435545921E-1,-5.379585549E-2
2.539581421E0,-5.928196907E-1,-6.221144199E-1,-8.468852192E-2
2.541887960E0,-4.026699662E-1,-3.989415467E-1,-2.503371425E-2
2.543593998E0,-1.326254308E-1,1.917476021E-2,3.621899337E-2
2.546296844E0,8.042746782E-2,4.862932265E-1,7.936219871E-2
2.547708114E0,1.539307088E-1,7.371630073E-1,1.177117229E-1
2.550505604E0,2.503371425E-2,6.759102941E-1,-1.491370238E-2
2.552250998E0,-1.320927888E-1,3.483414650E-1,-2.221076339E-1
2.554583411E0,-2.972087860E-1,-6.924218684E-2,-4.037352204E-1
2.555865344E0,-4.564658105E-1,-5.065332651E-1,-4.303668439E-1
2.558651834E0,-5.800365210E-1,-6.290386319E-1,-3.563309610E-1
2.559987306E0,-6.151902080E-1,-4.021373391E-1,-2.263686955E-1
2.562755180E0,-5.459480286E-1,-8.149272949E-2,-3.941478580E-2
2.564089614E0,-4.048005044E-1,2.082591951E-1,1.454086006E-1
2.566858757E0,-2.167813182E-1,3.675162494E-1,2.577939928E-1
2.568282268E0,0.000000000E0,2.956108749E-1,2.796319127E-1
2.570962103E0,2.556634545E-1,-1.331580617E-2,2.194444835E-1
2.572829806E0,4.809668958E-1,-3.467435837E-1,9.214537591E-2
2.575002565E0,6.045376062E-1,-3.845604658E-1,-9.214537591E-2
2.576345537E0,6.391586661E-1,-2.050634027E-1,-2.178465873E-1
2.579070796E0,6.588660479E-1,-2.450108156E-2,-2.194444835E-1
2.581105950E0,7.286409140E-1,2.476739883E-1,-1.832254827E-1
2.583175142E0,7.973504663E-1,4.340952635E-1,-7.297061384E-2
2.584601614E0,7.675230503E-1,4.159857631E-1,1.251685768E-1
2.587278719E0,6.034722924E-1,2.673813701E-1,3.009372056E-1
2.588686575E0,3.552657068E-1,6.338323653E-2,3.536677957E-1
2.591381911E0,9.214537591E-2,-1.784317940E-1,2.652508616E-1
2.593346575E0,-2.215750068E-1,-4.884237647E-1,2.556634694E-2
2.595004383E0,-2.876214087E-1,-5.720469952E-1,-3.675162420E-2
2.596790114E0,-3.419498801E-1,-5.720469952E-1,-1.225054115E-1
2.599428652E0,-3.227751255E-1,-3.185140789E-1,-1.422128081E-1
2.600931075E0,-2.684466541E-1,5.965480953E-2,-9.960222989E-2
2.603404229E0,-2.077265680E-1,6.167881489E-1,-4.367584363E-2
2.605456114E0,-1.992044598E-1,6.615292430E-1,-4.154531285E-2
2.607366844E0,-1.906823367E-1,4.186489284E-1,-8.042746782E-2
2.609034114E0,-2.295644879E-1,3.195793182E-2,-1.533980817E-1
2.611866873E0,-3.563309610E-1,-2.039981484E-1,-2.604571581E-1
2.613319652E0,-5.075985193E-1,-3.036003709E-1,-3.099919558E-1
2.615537767E0,-5.736449361E-1,-3.946804702E-1,-2.364887148E-1
2.617408691E0,-5.182511806E-1,-3.403519988E-1,-1.129180342E-1
2.619772191E0,-3.653857112E-1,-1.523328125E-1,2.982740477E-2
2.621465075E0,-1.454086006E-1,-7.243798673E-2,1.864212751E-1
2.623784191E0,1.507349163E-1,-1.006674916E-1,2.556634545E-1
2.625525537E0,4.745753109E-1,-1.177117229E-1,1.667138934E-1
2.628089267E0,6.631271243E-1,2.556634694E-2,-4.793690145E-2
2.629973037E0,6.487460732E-1,2.439455539E-1,-2.508697808E-1
2.632406949E0,5.299690962E-1,3.302319944E-1,-3.563309610E-1
2.634255229E0,4.154531360E-1,2.482066154E-1,-3.840278387E-1
2.636481526E0,3.930825889E-1,1.933455020E-1,-3.536677957E-1
2.637797844E0,3.046656251E-1,3.089267015E-2,-2.066612989E-1
2.640549565E0,1.486043930E-1,-8.255799860E-2,-1.171790902E-2
2.641988075E0,-1.651159860E-2,-2.109223604E-1,1.688444167E-1
2.644652796E0,-9.321063757E-2,-3.584614992E-1,2.652508616E-1
2.645950883E0,-6.125270575E-2,-4.735100567E-1,2.412824035E-1
2.648755219E0,1.438106969E-2,-5.182511806E-1,1.672465205E-1
2.650229152E0,7.297061384E-2,-4.149205089E-1,8.894958347E-2
2.652858103E0,1.006674916E-1,-2.503371425E-2,-6.391586736E-3
2.654809537E0,1.006674916E-1,2.860234976E-1,-6.977482140E-2
2.656903026E0,8.149272949E-2,3.824299276E-1,-1.187769845E-1
2.658222806E0,9.161274135E-2,3.398193717E-1,-2.119876295E-1
2.660970565E0,1.081243455E-1,1.571265012E-1,-3.195793331E-1
2.662382960E0,4.740426689E-2,6.711166352E-2,-4.127899706E-1
2.665073795E0,-1.118527651E-1,8.096009493E-2,-4.063983858E-1
2.666370691E0,-3.105245829E-1,-2.609897964E-2,-2.359560728E-1
2.669060421E0,-4.133225977E-1,-1.864212751E-1,-2.183792181E-2
2.670616267E0,-3.744404614E-1,-3.728425503E-1,1.395496428E-1
2.673280911E0,-2.748382390E-1,-4.713795185E-1,2.061286718E-1
2.675031460E0,-2.098570913E-1,-4.490089715E-1,1.837581247E-1
2.676832806E0,-2.002697140E-1,-2.902845740E-1,7.190535218E-2
2.678654075E0,-1.944107562E-1,-2.024002373E-2,-1.374191195E-1
2.681049806E0,-1.230380461E-1,2.418150306E-1,-3.717772961E-1
2.682790037E0,-1.012001187E-2,2.833603323E-1,-5.022721887E-1
2.685162883E0,1.123853996E-1,2.604571581E-1,-5.001416802E-1
2.687090075E0,2.141181529E-1,1.757686287E-1,-3.723099232E-1
2.689179498E0,2.668487430E-1,6.924218684E-2,-1.715075821E-1
2.690900614E0,2.828277051E-1,-1.123853996E-1,3.621899337E-2
2.693657872E0,3.451456726E-1,-3.605920076E-1,1.752360016E-1
2.695080614E0,4.788363874E-1,-6.093312502E-1,2.066612989E-1
2.697388498E0,6.130596995E-1,-6.998787522E-1,1.539307088E-1
2.699092306E0,6.663229465E-1,-5.587311983E-1,7.563377917E-2
2.701508537E0,5.944175720E-1,-2.684466541E-1,1.012001187E-2
2.703289883E0,4.633900523E-1,1.065264493E-1,-1.049285457E-1
2.705614575E0,3.318298757E-1,4.255731404E-1,-2.865561247E-1
2.707335690E0,2.402171344E-1,5.928196907E-1,-4.964132309E-1
2.709784498E0,6.285060197E-2,4.261057973E-1,-6.242449880E-1
2.711508306E0,-1.480717659E-1,2.535329461E-1,-5.262406468E-1
2.714212372E0,-3.957457542E-1,-1.864212751E-2,-2.934803665E-1
2.716089037E0,-5.997439027E-1,-3.978762627E-1,4.261057824E-3
2.718275295E0,-6.833671331E-1,-7.392935157E-1,1.981391907E-1
2.719454960E0,-6.588660479E-1,-8.202536106E-1,2.093244642E-1
2.722344064E0,-5.693838596E-1,-6.828345060E-1,1.075917110E-1
2.723645960E0,-4.793690145E-1,-3.978762627E-1,-1.331580617E-2
2.726447757E0,-4.117247164E-1,5.858954508E-3,-1.241033077E-1
2.727935575E0,-3.115898669E-1,3.589941263E-1,-2.141181529E-1
2.730551603E0,-1.443433315E-1,4.655205607E-1,-2.838929892E-1
2.731841960E0,1.097222418E-1,3.659183383E-1,-3.371562064E-1
2.734655295E0,3.611246645E-1,1.486043930E-1,-3.419498801E-1
2.736558075E0,5.480785370E-1,-1.022653878E-1,-1.874865443E-1
2.738696526E0,5.624596477E-1,-1.784317940E-1,-1.006674916E-1
2.739924306E0,6.146575809E-1,-3.222424984E-1,6.231797114E-2
2.742764911E0,7.515440583E-1,-4.287689328E-1,1.416801661E-1
2.743993960E0,8.841695189E-1,-4.101268053E-1,1.262338310E-1
2.746868180E0,8.793758154E-1,-1.970739216E-1,7.456851006E-2
2.748093075E0,6.849650741E-1,1.145159304E-1,1.757686399E-2
2.750846152E0,3.701793849E-1,4.511395097E-1,-8.202536404E-2
2.752234575E0,5.219795927E-2,5.528722405E-1,-2.167813182E-1
2.755074795E0,-1.533980817E-1,3.653857112E-1,-3.451456726E-1
2.756945614E0,-3.691141307E-1,-8.255799860E-2,-4.458131790E-1
2.758563075E0,-4.468784332E-1,-1.459412277E-1,-4.356931746E-1
2.760377921E0,-6.178534031E-1,-2.657834888E-1,-2.812298238E-1
2.762899114E0,-7.483482957E-1,-3.882888854E-1,1.049285457E-1
2.764503114E0,-6.535397172E-1,-4.032025933E-1,2.833603323E-1
2.766967652E0,-4.234426320E-1,-4.207794666E-1,3.110572100E-1
2.768616037E0,-1.571265012E-1,-3.398193717E-1,2.066612989E-1
2.770992652E0,9.054748341E-3,-1.251685768E-1,3.142530099E-2
2.772712767E0,6.018744037E-2,1.922802329E-1,-1.624528319E-1
2.775559257E0,6.285060197E-2,5.075985193E-1,-3.414172530E-1
2.776977229E0,1.017327532E-1,6.215817928E-1,-4.479437172E-1
2.779218344E0,1.864212751E-1,4.692489803E-1,-4.479437172E-1
2.780877229E0,2.913498282E-1,2.066612989E-1,-3.494067490E-1
2.783339690E0,3.456783295E-1,-4.314320907E-2,-1.832254827E-1
2.784977114E0,3.424825370E-1,-1.992044598E-1,5.326322280E-3
2.787367306E0,3.270362020E-1,-2.972087860E-1,1.581917703E-1
2.789095575E0,3.478088379E-1,-3.217098713E-1,2.247707993E-1
2.791680421E0,4.005394280E-1,-3.238403797E-1,2.194444835E-1
2.793172460E0,4.277036786E-1,-2.455434501E-1,1.608549356E-1
2.796004910E0,3.824299276E-1,-5.645901710E-2,6.817692518E-2
2.797691729E0,1.794970632E-1,2.918824553E-1,-1.033306494E-1
2.800073603E0,1.001348570E-1,3.872236311E-1,-1.667138934E-1
2.801289190E0,-3.834952042E-2,4.308994710E-1,-2.711097896E-1
2.804142410E0,-1.150485575E-1,2.849582434E-1,-3.233077526E-1
2.805406767E0,-1.539307088E-1,6.924218684E-2,-3.121224940E-1
2.808246410E0,-1.890844405E-1,-1.033306494E-1,-2.322276533E-1
2.809487998E0,-2.343581766E-1,-2.045307755E-1,-8.042746782E-2
2.812350218E0,-2.945456207E-1,-1.976065636E-1,8.575379103E-2
2.813880690E0,-3.115898669E-1,-1.576591432E-1,2.008023560E-1
2.816453256E0,-1.901497096E-1,-1.981391907E-1,2.173139453E-1
2.818299306E0,-4.687163606E-2,-2.375539690E-1,1.358212233E-1
2.820492333E0,8.468852192E-2,-1.906823367E-1,3.195793368E-3
2.821709498E0,1.454086006E-1,4.207794741E-2,-1.560612470E-1
2.824560795E0,1.443433315E-1,3.105245829E-1,-2.796319127E-1
2.825798921E0,1.400822699E-1,4.340952635E-1,-3.382214606E-1
2.828663872E0,1.805623323E-1,4.793690145E-1,-3.653857112E-1
2.829912729E0,2.050634027E-1,3.616572917E-1,-3.014698327E-1
2.832654883E0,1.645833552E-1,1.693770438E-1,-1.523328125E-1
2.834060690E0,6.817692518E-2,-6.178534031E-2,2.077265643E-2
2.836870756E0,-3.728425503E-2,-2.359560728E-1,1.310275346E-1
2.838638652E0,-1.086569726E-1,-3.206445873E-1,1.422128081E-1
2.840421498E0,-1.086569726E-1,-3.957457542E-1,1.161138266E-1
2.842229229E0,-3.302319720E-2,-4.452805519E-1,8.788431436E-2
2.844741690E0,6.924218684E-2,-3.414172530E-1,5.699164793E-2
2.846302344E0,1.603222936E-1,-1.049285457E-1,2.556634694E-2
2.848798229E0,2.146507949E-1,1.768338978E-1,-2.077265643E-2
2.850487344E0,2.572613657E-1,4.042678475E-1,-1.086569726E-1
2.852827767E0,3.121224940E-1,4.548679292E-1,-2.173139453E-1
2.854539229E0,3.488741219E-1,3.462109566E-1,-2.961435318E-1
2.857345756E0,3.057309091E-1,1.608549356E-1,-2.945456207E-1
2.858719152E0,1.699096859E-1,5.858954508E-3,-2.119876295E-1
2.861016729E0,-2.503371425E-2,-8.202536404E-2,-1.075917110E-1
2.862977190E0,-2.055960447E-1,-1.059938148E-1,-3.302319720E-2
2.865224498E0,-3.403519988E-1,-1.331580579E-1,3.195793368E-3
2.866859729E0,-4.079962969E-1,-1.816275865E-1,1.225054078E-2
2.869234190E0,-3.818973005E-1,-2.508697808E-1,3.249056637E-2
2.871004960E0,-3.020024598E-1,-2.716424465E-1,5.539375171E-2
2.873409037E0,-2.013349831E-1,-1.763012707E-1,2.503371425E-2
2.875037575E0,-8.575379103E-2,-2.024002373E-2,-6.444849819E-2
2.877887487E0,3.834952042E-2,1.198422536E-1,-1.816275865E-1
2.879532267E0,1.683117896E-1,2.141181529E-1,-2.828277051E-1
2.881960641E0,2.689792812E-1,2.487392575E-1,-3.211772442E-1
2.883310883E0,3.265035450E-1,2.354234457E-1,-2.673813701E-1
2.886029602E0,3.211772442E-1,1.251685768E-1,-1.352885813E-1
2.887287613E0,2.860234976E-1,-1.331580617E-2,-3.195793368E-3
2.890132872E0,2.402171344E-1,-1.459412277E-1,5.113269389E-2
2.891451113E0,2.146507949E-1,-2.237055302E-1,2.663161233E-2
2.894235833E0,2.109223604E-1,-3.217098713E-1,-1.065264456E-3
2.895579883E0,2.178465873E-1,-3.494067490E-1,-1.384843793E-2
2.898339064E0,2.364887148E-1,-2.689792812E-1,-6.391586736E-3
2.900250844E0,2.609897852E-1,-4.527373984E-2,-8.522115648E-3
2.902387064E0,2.652508616E-1,3.675162420E-2,-3.036003746E-2
2.903620075E0,2.705771625E-1,1.656486243E-1,-1.118527651E-1
2.906455910E0,2.476739883E-1,2.327602804E-1,-2.215750068E-1
2.907707729E0,1.736381054E-1,2.322276533E-1,-3.025351167E-1
2.910559256E0,3.888215125E-2,1.518001854E-1,-3.073287904E-1
2.911811113E0,-1.315601617E-1,-2.663161140E-3,-2.295644879E-1
2.914590690E0,-3.094593287E-1,-1.496696621E-1,-1.454086006E-1
2.915932113E0,-4.591289759E-1,-1.986718178E-1,-1.134506613E-1
2.918766410E0,-5.486112237E-1,-2.540655732E-1,-1.086569726E-1
2.920487729E0,-5.608617067E-1,-2.412824035E-1,-1.177117229E-1
2.922492960E0,-4.905542731E-1,-2.029328793E-1,-8.735168725E-2
2.924164960E0,-3.408846259E-1,-2.024002522E-1,-2.503371425E-2
2.926630960E0,-1.257012039E-1,-1.976065636E-1,1.438106969E-2
2.928312152E0,1.214401498E-1,-1.837581247E-1,-1.597896684E-3
2.930881806E0,3.568635881E-1,-1.400822699E-1,-7.669904083E-2
2.932410613E0,5.352953672E-1,-4.101268202E-2,-1.954760253E-1
2.934710960E0,6.546050310E-1,8.575379103E-2,-3.014698327E-1
2.936446498E0,7.041398287E-1,1.533980817E-1,-3.334277868E-1
2.939241833E0,6.695187092E-1,1.922802329E-1,-2.977414131E-1
2.940635844E0,5.757754445E-1,1.320927888E-1,-2.008023560E-1
2.942938998E0,4.255731404E-1,-3.515372798E-2,-9.534116834E-2
2.944661960E0,2.348908186E-1,-1.592570394E-1,-4.793690145E-2
2.947426844E0,3.302319720E-2,-3.142530024E-1,-4.953479767E-2
2.948771921E0,-1.379517466E-1,-4.383563101E-1,-8.735168725E-2
2.951231460E0,-2.327602804E-1,-5.065332651E-1,-1.315601617E-1
2.952849575E0,-2.604571581E-1,-5.203816891E-1,-1.502022892E-1
2.955395844E0,-2.253034264E-1,-4.388889670E-1,-1.427454352E-1
2.957252613E0,-1.416801661E-1,-3.078614175E-1,-1.251685768E-1
2.959790525E0,-1.651159860E-2,-1.459412277E-1,-1.416801661E-1
2.961691883E0,1.656486243E-1,8.681905270E-2,-2.482066154E-1
2.963872140E0,1.997370869E-1,1.097222418E-1,-2.833603323E-1
2.965129306E0,2.284992188E-1,1.139832959E-1,-3.403519988E-1
2.967941064E0,1.949433982E-1,1.438106969E-2,-3.536677957E-1
2.969275075E0,1.113201380E-1,-1.198422536E-1,-3.462109566E-1
2.972045102E0,-5.645901710E-2,-3.488741219E-1,-2.988066673E-1
2.973377998E0,-1.667138934E-1,-3.994741738E-1,-2.940129936E-1
2.976148910E0,-2.311623842E-1,-4.000068009E-1,-2.982740402E-1
2.977428190E0,-2.508697808E-1,-3.834952116E-1,-2.796319127E-1
2.980252910E0,-2.231729031E-1,-3.366235793E-1,-2.386192381E-1
2.982175806E0,-1.518001854E-1,-3.302319944E-1,-1.651159972E-1
2.984294948E0,-2.663161233E-2,-3.557983339E-1,-1.049285457E-1
2.985804921E0,1.283643693E-1,-3.872236311E-1,-9.800432622E-2
2.988363948E0,2.881540358E-1,-4.218447208E-1,-1.512675583E-1
2.989690960E0,4.271710515E-1,-4.191815555E-1,-2.535329461E-1
2.992467871E0,5.246427655E-1,-3.089267015E-1,-3.898867965E-1
2.993902075E0,5.635249019E-1,-1.336906850E-1,-4.948153496E-1
2.996512536E0,5.187838078E-1,9.054748341E-3,-5.145227313E-1
2.997869652E0,4.159857631E-1,7.297061384E-2,-4.511395097E-1
3.000673833E0,2.775014043E-1,-1.171790902E-2,-3.408846259E-1
3.002413844E0,1.262338310E-1,-1.992044598E-1,-2.455434501E-1
3.004310421E0,-2.024002373E-2,-4.953479767E-1,-1.741707325E-1
3.006078344E0,-1.486043930E-1,-7.574030161E-1,-1.715075821E-1
3.008459344E0,-2.316950262E-1,-8.447546959E-1,-2.460760921E-1
3.010095460E0,-2.343581766E-1,-8.271778226E-1,-3.195793331E-1
3.012556883E0,-1.635181010E-1,-6.753776670E-1,-3.627225459E-1
3.014209460E0,-4.207794741E-2,-4.170510471E-1,-3.643204570E-1
3.016585729E0,1.049285457E-1,-1.805623323E-1,-3.211772442E-1
3.018340883E0,2.503371537E-1,-5.432848632E-2,-2.796319127E-1
3.021137525E0,3.675162494E-1,-2.876213938E-2,-2.950782478E-1
3.022612306E0,3.808320463E-1,-1.304948926E-1,-4.234426320E-1
3.024727652E0,3.307646215E-1,-1.816275865E-1,-4.767058492E-1
3.026422767E0,2.034655064E-1,-3.632551730E-1,-5.464806557E-1
3.028872921E0,7.989482954E-3,-5.874933600E-1,-5.566006899E-1
3.030632998E0,-1.086569726E-1,-6.375607848E-1,-4.841626883E-1
3.032883229E0,-2.066612989E-1,-6.604639888E-1,-3.563309610E-1
3.034620959E0,-2.599245310E-1,-5.896238685E-1,-2.721750736E-1
3.037069536E0,-2.588592768E-1,-4.825648069E-1,-2.721750736E-1
3.038867190E0,-2.098570913E-1,-4.234426320E-1,-3.270362020E-1
3.041552025E0,-1.187769845E-1,-4.596616030E-1,-3.936152160E-1
3.043447036E0,3.036003746E-2,-5.187838078E-1,-4.564658105E-1
3.045631294E0,2.157160491E-1,-5.747101903E-1,-4.932174385E-1
3.046886921E0,4.074636400E-1,-5.816344023E-1,-4.841626883E-1
3.049699525E0,5.518069863E-1,-5.257080197E-1,-4.431500137E-1
3.050991229E0,6.391586661E-1,-3.861583769E-1,-4.282363057E-1
3.053778525E0,6.823018789E-1,-2.423476577E-1,-4.580637217E-1
3.055087306E0,6.663229465E-1,-1.885518134E-1,-4.996090233E-1
3.057846986E0,5.731122494E-1,-2.370213419E-1,-5.214469433E-1
3.059162267E0,4.106594622E-1,-3.696467578E-1,-5.033374429E-1
3.061950717E0,1.976065636E-1,-5.251753926E-1,-4.655205607E-1
3.063919113E0,-1.054611802E-1,-7.595335841E-1,-3.968110085E-1
3.065991794E0,-1.821602285E-1,-8.410263062E-1,-3.755057156E-1
3.067415575E0,-2.631203234E-1,-9.283779860E-1,-3.707120419E-1
3.070060602E0,-2.615224123E-1,-9.129316211E-1,-3.984089196E-1
3.071523190E0,-1.874865443E-1,-7.872304320E-1,-4.324973822E-1
3.074163640E0,-7.190535218E-2,-6.008091569E-1,-4.628573954E-1
3.075501767E0,5.432848632E-2,-3.701793849E-1,-4.862932265E-1
3.078158075E0,1.800296903E-1,-2.178465873E-1,-5.054680109E-1
3.079610998E0,2.844256163E-1,-1.890844405E-1,-5.257080197E-1
3.082369871E0,3.568635881E-1,-2.514024079E-1,-5.629922748E-1
3.084155652E0,3.542004228E-1,-4.506068528E-1,-6.066681147E-1
3.085885267E0,3.217098713E-1,-5.086637735E-1,-6.098638773E-1
3.087699883E0,1.901497096E-1,-6.519418359E-1,-5.640575290E-1
3.090355844E0,1.006674916E-1,-6.833671331E-1,-5.017395616E-1
3.091786998E0,2.822950855E-2,-6.913566589E-1,-4.356931746E-1
3.094322575E0,-1.917476021E-2,-7.158577442E-1,-3.765709996E-1
3.095893152E0,-4.793690145E-2,-6.780408025E-1,-3.776362538E-1
3.098275036E0,-6.924218684E-2,-5.960154533E-1,-4.293015897E-1
3.100035921E0,-8.202536404E-2,-5.273059011E-1,-5.044026971E-1
3.102832371E0,-7.510114461E-2,-4.745753109E-1,-5.853627920E-1
3.104175806E0,-2.290318534E-2,-4.697816372E-1,-6.327670813E-1
3.106528690E0,8.149272949E-2,-5.097290277E-1,-6.215817928E-1
3.108245536E0,1.997370869E-1,-5.619270205E-1,-5.427522659E-1
3.110703267E0,3.254382908E-1,-6.013417840E-1,-4.431500137E-1
3.112345844E0,4.388889670E-1,-6.146575809E-1,-3.691141307E-1
3.114739921E0,5.267732739E-1,-5.842975378E-1,-3.632551730E-1
3.116440536E0,5.784385800E-1,-5.406216979E-1,-4.191815555E-1
3.119042229E0,5.805691481E-1,-4.910869002E-1,-5.001416802E-1
3.120637844E0,5.262406468E-1,-4.340952635E-1,-5.677859783E-1
3.123374024E0,4.191815555E-1,-3.946804702E-1,-5.864281058E-1
3.125445921E0,2.103897333E-1,-4.703142643E-1,-5.086637735E-1
3.127448332E0,1.464738697E-1,-5.012069345E-1,-4.788363874E-1
3.128749306E0,3.675162420E-2,-6.061354876E-1,-4.277036786E-1
3.131517563E0,-3.568635881E-2,-7.275756001E-1,-4.074636400E-1
3.132778459E0,-7.084008306E-2,-8.032094240E-1,-4.282363057E-1
3.135621486E0,-7.030745596E-2,-7.691209316E-1,-4.799016416E-1
3.136897344E0,-1.225054078E-2,-5.699164867E-1,-5.470132828E-1
3.139724640E0,3.888215125E-2,-3.728425503E-1,-5.566006899E-1
3.140998075E0,8.841694891E-2,-2.822950780E-1,-5.171858668E-1
3.143828678E0,1.507349163E-1,-2.870887816E-1,-4.708468914E-1
3.145725421E0,2.183792144E-1,-3.877562582E-1,-4.415521026E-1
3.147875409E0,2.641855776E-1,-5.267732739E-1,-4.426173866E-1
3.149110998E0,2.583266199E-1,-6.311691999E-1,-4.729774296E-1
3.151944909E0,2.258360684E-1,-6.769755483E-1,-5.123922229E-1
3.153193613E0,2.018676102E-1,-6.684534550E-1,-5.464806557E-1
3.156048447E0,1.864212751E-1,-5.736449361E-1,-5.688512325E-1
3.157422036E0,1.619201899E-1,-4.676510990E-1,-5.432848930E-1
3.160152140E0,1.262338310E-1,-4.186489284E-1,-4.772384763E-1
3.161680729E0,8.362326026E-2,-3.904194236E-1,-4.335626364E-1
3.164256217E0,3.781688958E-2,-4.010720551E-1,-4.340952635E-1
3.166208575E0,-1.171790902E-2,-4.324973822E-1,-4.751079381E-1
3.168017998E0,-4.420847446E-2,-5.358279943E-1,-5.193164349E-1
3.169608267E0,-2.556634694E-2,-6.551376581E-1,-5.470132828E-1
3.172089075E0,5.752427876E-2,-6.945524216E-1,-5.491438508E-1
3.173743729E0,1.704423130E-1,-6.673882008E-1,-4.964132309E-1
3.176168536E0,2.876214087E-1,-5.842975378E-1,-3.989415467E-1
3.177818613E0,4.106594622E-1,-4.660531878E-1,-3.291667104E-1
3.180165229E0,5.342301130E-1,-3.637878001E-1,-3.286340833E-1
3.181958959E0,6.178534031E-1,-3.078614175E-1,-3.866910040E-1
3.184726140E0,6.141249537E-1,-3.020024598E-1,-4.617921412E-1
3.186106921E0,4.671184719E-1,-3.382214606E-1,-5.395564437E-1
3.188415152E0,3.147856593E-1,-4.101268053E-1,-5.411543250E-1
3.190150959E0,1.581917703E-1,-4.916195571E-1,-5.123922229E-1
3.192602459E0,2.183792181E-2,-5.411543250E-1,-4.649879336E-1
3.194244036E0,-8.362326026E-2,-6.141249537E-1,-3.893541694E-1
3.196688229E0,-1.267664731E-1,-6.998787522E-1,-3.201119602E-1
3.198359229E0,-1.134506613E-1,-7.579356432E-1,-2.897519469E-1
3.200828767E0,-6.657902896E-2,-6.732471585E-1,-3.414172530E-1
3.202468575E0,-9.054748341E-3,-4.985437691E-1,-4.335626364E-1
3.205276409E0,4.048004746E-2,-3.211772442E-1,-5.129248500E-1
3.207335613E0,8.255799860E-2,-1.848233789E-1,-5.544701219E-1
3.209358216E0,1.182443574E-1,-1.475391239E-1,-5.459480286E-1
3.210645344E0,1.565938741E-1,-2.476739883E-1,-4.953479767E-1
3.213427332E0,2.109223604E-1,-4.239752591E-1,-4.314320982E-1
3.214792344E0,2.290318608E-1,-5.736449361E-1,-3.978762627E-1
3.217531024E0,1.837581247E-1,-5.848301649E-1,-4.095941782E-1
3.218873690E0,9.800432622E-2,-5.677859783E-1,-4.250405133E-1
3.221635024E0,1.917476021E-2,-5.379585624E-1,-4.410194755E-1
3.222916267E0,-2.290318534E-2,-4.921521842E-1,-4.607268870E-1
3.225739101E0,-3.994741663E-2,-4.687163532E-1,-4.676510990E-1
3.227596690E0,-8.628641814E-2,-4.122573435E-1,-4.426173866E-1
3.229782101E0,-1.012001261E-1,-3.920173049E-1,-4.356931746E-1
3.231107998E0,-1.166464612E-1,-3.691141307E-1,-4.335626364E-1
3.233850678E0,-7.137271762E-2,-4.063983858E-1,-4.452805519E-1
3.235249113E0,4.900216311E-2,-5.214469433E-1,-4.484763443E-1
3.237954293E0,2.300971150E-1,-6.396912932E-1,-4.250405133E-1
3.239621075E0,4.298342168E-1,-6.977482438E-1,-3.834952116E-1
3.242045613E0,6.625944972E-1,-5.624596477E-1,-3.174487948E-1
3.243573190E0,7.238472104E-1,-3.328951299E-1,-3.296993375E-1
3.246161755E0,7.190535069E-1,-1.107875034E-1,-4.000068009E-1
3.247873190E0,6.753776670E-1,-1.970739290E-2,-4.814995229E-1
3.249685575E0,5.768406987E-1,-1.145159304E-1,-5.134574771E-1
3.251493152E0,4.149205089E-1,-2.593919039E-1,-5.044026971E-1
3.254172305E0,2.055960447E-1,-3.978762627E-1,-4.484763443E-1
3.255580267E0,-1.597896591E-2,-6.157228351E-1,-3.323625028E-1
3.258083305E0,-1.677791476E-1,-8.367652297E-1,-2.386192381E-1
3.259686305E0,-2.183792144E-1,-9.230516553E-1,-2.476739883E-1
3.262067229E0,-1.752360016E-1,-8.010788560E-1,-3.510046303E-1
3.263947305E0,-9.321063757E-2,-5.944175720E-1,-4.298342168E-1
3.266634178E0,-1.757686399E-2,-3.259709179E-1,-4.447479248E-1
3.268132498E0,3.568635881E-2,-7.456851006E-2,-4.010720551E-1
3.270252921E0,7.190535218E-2,2.929477207E-2,-3.392867148E-1
3.271921690E0,1.134506613E-1,-1.331580617E-2,-3.243730366E-1
3.274380844E0,1.315601617E-1,-2.269013226E-1,-3.520699143E-1
3.276047498E0,7.936219871E-2,-4.308994710E-1,-4.181163013E-1
3.278419536E0,-5.912217870E-2,-5.486112237E-1,-4.729774296E-1
3.280238844E0,-1.890844405E-1,-6.077333689E-1,-4.836300611E-1
3.282602998E0,-2.434129268E-1,-6.391586661E-1,-4.538026452E-1
3.284427959E0,-2.093244642E-1,-5.581985712E-1,-4.277036786E-1
3.287070332E0,-1.443433315E-1,-3.579288721E-1,-4.053331316E-1
3.289205305E0,-7.989483327E-2,-1.427454352E-1,-2.924150825E-1
3.291139447E0,-7.243798673E-2,-1.001348570E-1,-2.503371537E-1
3.292397152E0,-3.941478580E-2,-1.533980817E-1,-1.837581247E-1
3.295207139E0,5.645901710E-2,-3.813646734E-1,-1.715075821E-1
3.296550690E0,3.004045784E-1,-7.504788041E-1,-2.796319127E-1
3.299308947E0,4.703142643E-1,-8.106662631E-1,-3.834952116E-1
3.300728498E0,5.896238685E-1,-6.332997084E-1,-4.554005563E-1
3.303411331E0,6.386260390E-1,-2.370213419E-1,-4.814995229E-1
3.304756421E0,6.317018270E-1,1.241033077E-1,-4.356931746E-1
3.307514101E0,6.327670813E-1,3.153182864E-1,-3.637878001E-1
3.309444805E0,6.013417840E-1,1.832254827E-1,-2.482066154E-1
3.311552793E0,5.091964006E-1,-1.768338978E-1,-1.395496428E-1
3.313082921E0,3.526025414E-1,-5.784385800E-1,-9.534116834E-2
3.315620408E0,1.352885813E-1,-8.250473142E-1,-1.528654546E-1
3.317203844E0,-6.657902896E-2,-7.920241356E-1,-2.924150825E-1
3.319723024E0,-1.864212751E-1,-7.382282615E-1,-3.914846778E-1
3.321281075E0,-1.587243974E-1,-6.492787004E-1,-4.181163013E-1
3.323826331E0,-2.396845073E-2,-4.783037305E-1,-3.802994192E-1
3.325585190E0,9.853696078E-2,-1.560612470E-1,-3.083940744E-1
3.327929524E0,1.352885813E-1,1.571265012E-1,-2.018676102E-1
3.329699921E0,5.965480953E-2,1.821602285E-1,-1.012001261E-1
3.331836113E0,4.367584363E-2,5.539375171E-2,-1.187769845E-1
3.333280575E0,4.261057824E-3,-3.435477912E-1,-2.242381722E-1
3.335729652E0,-8.362326026E-2,-6.625944972E-1,-3.787015080E-1
3.337427575E0,-2.530003190E-1,-8.010788560E-1,-4.926848114E-1
3.339901805E0,-4.074636400E-1,-6.924219131E-1,-5.496764779E-1
3.341575152E0,-4.442152679E-1,-3.339604139E-1,-5.731122494E-1
3.343877421E0,-3.914846778E-1,3.036003746E-2,-4.985437691E-1
3.345603728E0,-3.201119602E-1,1.182443574E-1,-2.679139972E-1
3.348403101E0,-8.735168725E-2,-1.731054783E-1,3.249056637E-2
3.349869728E0,2.034655064E-1,-4.799016416E-1,1.704423130E-2
3.352154075E0,4.303668439E-1,-6.801713705E-1,-1.177117229E-1
3.353960113E0,4.053331316E-1,-5.571333170E-1,-2.705771625E-1
3.356439228E0,2.178465873E-1,-2.125202566E-1,-3.850930929E-1
3.358124690E0,1.278317273E-1,-3.888215125E-2,-4.207794666E-1
3.360352536E0,2.189118415E-1,-5.432848632E-2,-4.143878818E-1
3.362080075E0,3.797667921E-1,-1.406149119E-1,-3.542004228E-1
3.364507613E0,4.319647253E-1,-2.183792144E-1,-2.183792144E-1
3.366159536E0,3.611246645E-1,-1.773665249E-1,-6.125270575E-2
3.368944024E0,2.487392575E-1,-2.561961114E-1,5.592638254E-2
3.370717305E0,2.428802997E-1,-3.765709996E-1,4.900216311E-2
3.373019677E0,3.589941263E-1,-6.082659960E-1,-4.740426689E-2
3.374307921E0,5.155879855E-1,-7.909588814E-1,-1.347559541E-1
3.377087793E0,6.215817928E-1,-7.499461770E-1,-1.688444167E-1
3.378519267E0,5.853627920E-1,-4.069310129E-1,-1.704423130E-1
3.381191370E0,4.511395097E-1,1.118527651E-1,-2.024002522E-1
3.382466728E0,2.806971967E-1,4.633900523E-1,-2.865561247E-1
3.385295177E0,1.459412277E-1,5.587311983E-1,-4.266384244E-1
3.386791959E0,2.450108156E-2,4.340952635E-1,-5.688512325E-1
3.389398216E0,-1.704423130E-1,1.379517466E-1,-5.720469952E-1
3.391463382E0,-6.226470470E-1,-4.308994710E-1,-2.641855776E-1
3.393437447E0,-7.760451436E-1,-6.045376062E-1,-1.283643693E-1
3.394660382E0,-9.518138170E-1,-9.161274433E-1,9.108011425E-2
3.397505216E0,-9.603359103E-1,-9.869675040E-1,1.390170157E-1
3.398784382E0,-7.898935676E-1,-7.893609405E-1,4.314320907E-2
3.401608139E0,-4.527373910E-1,-3.174487948E-1,-1.379517466E-1
3.402990459E0,-2.274339646E-1,5.486112088E-2,-1.880191714E-1
3.405670767E0,-3.195793182E-2,2.588592768E-1,-1.725728363E-1
3.407267113E0,1.587243974E-1,3.968110085E-1,-1.917476058E-1
3.409813946E0,3.510046303E-1,2.455434501E-1,-2.194444835E-1
3.411716036E0,5.241101384E-1,1.491370238E-2,-2.769687474E-1
3.413548959E0,6.306365728E-1,-2.370213419E-1,-2.998719513E-1
3.415294305E0,6.892260909E-1,-4.266384244E-1,-2.545982003E-1
3.417839382E0,7.755125165E-1,-4.905542731E-1,-1.763012707E-1
3.419363575E0,9.171926975E-1,-4.596616030E-1,-7.723167539E-2
3.421833344E0,1.031708598E0,-2.343581766E-1,6.391586736E-3
3.423625075E0,1.005609632E0,-4.261057824E-3,1.091896072E-1
3.425737921E0,8.420915604E-1,1.438107044E-1,1.560612470E-1
3.427495652E0,5.811017752E-1,2.348908186E-1,5.006742850E-2
3.430277216E0,2.444781959E-1,2.764361203E-1,-2.045307755E-1
3.431678152E0,-1.059938148E-1,2.625876963E-1,-4.410194755E-1
3.434046228E0,-4.921521842E-1,-3.355583176E-2,-4.783037305E-1
3.435801959E0,-8.133293986E-1,-3.217098713E-1,-3.547330499E-1
3.438247228E0,-1.010403395E0,-5.720469952E-1,-1.486043930E-1
3.440043728E0,-1.065797091E0,-7.728493810E-1,8.681905270E-2
3.442361998E0,-9.693906307E-1,-8.356999755E-1,2.508697808E-1
3.443930998E0,-7.675230503E-1,-5.715143681E-1,2.125202566E-1
3.446359959E0,-5.480785370E-1,-1.017327532E-1,3.728425503E-2
3.448052998E0,-4.058657587E-1,2.370213419E-1,-8.681905270E-2
3.450828216E0,-2.295644879E-1,4.159857631E-1,-2.295644879E-1
3.452662767E0,-4.846953228E-2,4.340952635E-1,-3.818973005E-1
3.454912485E0,1.331580579E-1,3.201119602E-1,-4.506068528E-1
3.456327228E0,2.450108230E-1,3.568635881E-2,-3.483414650E-1
3.458979985E0,3.403519988E-1,-2.210423797E-1,-1.592570394E-1
3.460274728E0,5.198490620E-1,-4.042678475E-1,6.924218964E-3
3.463082985E0,7.973504663E-1,-5.033374429E-1,1.230380461E-1
3.464449267E0,1.062601328E0,-5.289037824E-1,2.103897333E-1
3.467185754E0,1.224521518E0,-3.920173049E-1,2.503371537E-1
3.468547036E0,1.212803602E0,-1.219727769E-1,2.322276533E-1
3.471289331E0,1.041828632E0,2.071939409E-1,1.017327532E-1
3.473209921E0,7.536746264E-1,5.938849449E-1,-1.629854590E-1
3.475330754E0,4.122573435E-1,7.494135499E-1,-4.111920893E-1
3.477140151E0,3.888215125E-2,5.123922229E-1,-4.575310946E-1
3.479399523E0,-3.845604658E-1,1.864212751E-2,-3.281014562E-1
3.480892113E0,-7.403587699E-1,-4.894890189E-1,-1.294296384E-1
3.483503715E0,-9.704559445E-1,-9.289106131E-1,7.030745596E-2
3.484788767E0,-1.065264463E0,-1.000815988E0,1.486043930E-1
3.487582613E0,-1.069525480E0,-7.739146352E-1,1.443433315E-1
3.488962036E0,-9.843043685E-1,-4.005394280E-1,8.468852192E-2
3.491710562E0,-8.069378138E-1,-2.343581803E-2,-2.130528912E-3
3.493389151E0,-4.431500137E-1,4.069310129E-1,-1.763012707E-1
3.495336344E0,-3.190467060E-1,4.921521842E-1,-2.380866110E-1
3.497356498E0,-1.107875034E-1,5.667206645E-1,-3.153182864E-1
3.499707536E0,1.384843793E-2,4.271710515E-1,-2.940129936E-1
3.501153036E0,1.203748807E-1,1.118527651E-1,-2.008023560E-1
3.503679882E0,2.972087860E-1,-2.530003190E-1,-1.374191195E-1
3.505311767E0,7.025418878E-1,-6.498113275E-1,-6.178534031E-2
3.507631151E0,9.624664187E-1,-7.163903713E-1,3.941478580E-2
3.509469305E0,1.139832973E0,-5.603290796E-1,1.422128081E-1
3.512174254E0,1.166997194E0,-1.251685768E-1,1.656486243E-1
3.513970190E0,1.016794920E0,4.356931746E-1,5.592638254E-2
3.515813921E0,7.499461770E-1,8.596684337E-1,-1.448759735E-1
3.517479498E0,4.767058492E-1,7.957525253E-1,-2.897519469E-1
3.519996382E0,1.874865443E-1,3.169161677E-1,-2.940129936E-1
3.521711036E0,-1.454086006E-1,-3.446130455E-1,-1.842907518E-1
3.524155075E0,-4.516721368E-1,-8.735168576E-1,-3.515372798E-2
3.525730613E0,-6.673882008E-1,-1.102548718E0,8.415589482E-2
3.528164882E0,-7.760451436E-1,-9.374327064E-1,9.693906456E-2
3.529926190E0,-7.701861858E-1,-6.290386319E-1,7.190535218E-2
3.532609715E0,-6.945524216E-1,-3.557983339E-1,5.539375171E-2
3.534419690E0,-5.502091050E-1,3.142530099E-2,-6.764429063E-2
3.536678523E0,-3.802994192E-1,4.585963488E-1,-2.524676621E-1
3.538060075E0,-2.854908705E-1,6.348975897E-1,-3.595267534E-1
3.540746638E0,-2.684466541E-1,5.688512325E-1,-3.675162494E-1
3.542065805E0,-2.641855776E-1,2.647182047E-1,-2.972087860E-1
3.544849331E0,-1.640507281E-1,-1.880191714E-1,-2.354234457E-1
3.546256536E0,7.776430249E-2,-6.364955306E-1,-1.826928556E-1
3.548951369E0,3.755057156E-1,-9.166600704E-1,-1.006674916E-1
3.550284498E0,6.412891746E-1,-9.640643597E-1,3.888215125E-2
3.553054100E0,8.420915604E-1,-7.504788041E-1,1.459412277E-1
3.555066882E0,9.491506219E-1,2.588592768E-1,-6.072007492E-2
3.557094523E0,9.171926975E-1,6.519418359E-1,-1.917476058E-1
3.558377421E0,7.510114312E-1,1.048220277E0,-3.717772961E-1
3.561161754E0,5.235774517E-1,7.898935676E-1,-3.707120419E-1
3.562638844E0,2.407497615E-1,2.098570913E-1,-2.950782478E-1
3.565264946E0,-1.443433315E-1,-8.154599667E-1,-1.384843737E-1
3.566577959E0,-3.685815036E-1,-1.218662500E0,-3.195793182E-2
3.569367715E0,-5.411543250E-1,-1.201618314E0,3.515372798E-2
3.570876151E0,-6.056028605E-1,-9.944243431E-1,6.498113275E-2
3.573470446E0,-5.273059011E-1,-8.468852639E-1,1.075917110E-1
3.575399959E0,-3.318298757E-1,-4.159857631E-1,-3.195793182E-2
3.577089613E0,-8.628641814E-2,2.263686955E-1,-2.897519469E-1
3.579006882E0,1.651159860E-2,6.828345060E-1,-4.388889670E-1
3.581336459E0,-1.491370238E-2,6.514092088E-1,-3.829625845E-1
3.582962574E0,-6.817692518E-2,3.888215125E-1,-3.195793331E-1
3.585391959E0,2.822950855E-2,-5.273059011E-2,-3.579288721E-1
3.587046421E0,2.668487430E-1,-6.386260390E-1,-3.808320463E-1
3.589430267E0,4.772384763E-1,-1.103081346E0,-3.057309091E-1
3.591318498E0,5.869607329E-1,-1.233043551E0,-1.475391239E-1
3.593945484E0,6.263754964E-1,-9.741843343E-1,-4.527373984E-2
3.595346228E0,6.428871155E-1,-2.199771106E-1,-1.688444167E-1
3.597689228E0,5.768406987E-1,6.290386319E-1,-4.042678475E-1
3.599383844E0,4.037352204E-1,9.278453588E-1,-4.921521842E-1
3.601837921E0,1.747033745E-1,6.189186573E-1,-4.271710515E-1
3.603487267E0,-7.510114461E-2,-1.544633508E-2,-3.259709179E-1
3.605910613E0,-2.604571581E-1,-7.803062201E-1,-2.508697808E-1
3.607830651E0,-3.611246645E-1,-1.314003706E0,-2.141181529E-1
3.610050728E0,-4.516721368E-1,-1.368332148E0,-1.544633508E-1
3.611830190E0,-4.735100567E-1,-1.141430855E0,-3.302319720E-2
3.614483676E0,-3.472762108E-1,-8.852347732E-1,3.994741663E-2
3.616260690E0,-4.314320907E-2,-2.737729549E-1,-1.528654546E-1
3.618558023E0,2.753708661E-1,3.275688291E-1,-4.266384244E-1
3.619841459E0,4.293015897E-1,5.416869521E-1,-5.139901042E-1
3.622626253E0,3.510046303E-1,4.335626364E-1,-4.458131790E-1
3.624079767E0,2.343581766E-1,2.263686955E-1,-4.282363057E-1
3.626729061E0,2.796319127E-1,-2.402171344E-1,-4.719121456E-1
3.628071767E0,4.767058492E-1,-8.958874345E-1,-4.814995229E-1
3.630831369E0,6.556702852E-1,-1.378452182E0,-3.984089196E-1
3.632156382E0,7.339671850E-1,-1.439704895E0,-2.705771625E-1
3.634934023E0,7.392935157E-1,-8.788431883E-1,-2.535329461E-1
3.637403498E0,5.981460214E-1,4.942827225E-1,-4.324973822E-1
3.639981907E0,3.877562582E-1,8.543421030E-1,-4.452805519E-1
3.641617882E0,1.097222418E-1,6.056028605E-1,-3.925499618E-1
3.644049253E0,-1.805623323E-1,-8.522115648E-3,-3.829625845E-1
3.645471305E0,-4.250405133E-1,-8.058725595E-1,-3.888215125E-1
3.648150946E0,-6.258428693E-1,-1.388039589E0,-4.063983858E-1
3.649528459E0,-7.787083387E-1,-1.516936541E0,-3.898867965E-1
3.652200190E0,-8.948221207E-1,-1.423725963E0,-2.476739883E-1
3.653654074E0,-8.005462289E-1,-1.294296265E0,-5.432848632E-2
3.656355369E0,-4.165183902E-1,-8.985505700E-1,-8.255799860E-2
3.658022113E0,3.760383427E-1,6.977482140E-2,-4.399542212E-1
3.659918882E0,5.560680628E-1,2.679139972E-1,-4.830974340E-1
3.661695344E0,6.359629035E-1,3.776362538E-1,-4.085289240E-1
3.664210690E0,5.518069863E-1,3.813646734E-1,-3.760383427E-1
3.665814959E0,5.608617067E-1,1.059938148E-1,-5.017395616E-1
3.668331921E0,8.713863492E-1,-9.363674521E-1,-6.844323874E-1
3.669909036E0,1.024251819E0,-1.592570305E0,-6.396912932E-1
3.672291574E0,1.028512836E0,-1.555818796E0,-5.842975378E-1
3.674171344E0,9.438242912E-1,-7.824367285E-1,-6.098638773E-1
3.676821984E0,7.856325507E-1,1.581917703E-1,-6.199839115E-1
3.678427267E0,5.768406987E-1,6.519418359E-1,-5.054680109E-1
3.680626421E0,3.036003709E-1,5.997439027E-1,-3.787015080E-1
3.682362382E0,-2.183792181E-2,1.384843737E-1,-3.286340833E-1
3.684929959E0,-3.866910040E-1,-7.057377100E-1,-2.982740402E-1
3.686533613E0,-7.089334726E-1,-1.485511303E0,-3.243730366E-1
3.688671767E0,-9.273127317E-1,-1.859951735E0,-3.909520507E-1
3.690366497E0,-1.089765549E0,-1.871669650E0,-3.994741738E-1
3.692791459E0,-1.100950837E0,-1.612810373E0,-3.147856593E-1
3.694582805E0,-8.277105093E-1,-1.110005617E0,-3.243730366E-1
3.697261176E0,-2.727077007E-1,-3.099919558E-1,-5.251753926E-1
3.699206151E0,5.166532397E-1,4.532700181E-1,-6.253102422E-1
3.701336368E0,6.434197426E-1,4.554005563E-1,-5.384911895E-1
3.702713536E0,6.673882008E-1,5.070658922E-1,-4.074636400E-1
3.705404215E0,6.290386319E-1,2.801645398E-1,-4.282363057E-1
3.706616959E0,7.147924304E-1,-5.012069345E-1,-5.113269091E-1
3.709507368E0,9.294432402E-1,-1.474326015E0,-6.087986231E-1
3.710761613E0,1.128115058E0,-2.075135231E0,-6.780408025E-1
3.713610215E0,1.169127703E0,-1.711879969E0,-7.739146352E-1
3.714887882E0,1.096689701E0,-5.811017752E-1,-8.218515515E-1
3.717713215E0,9.454222322E-1,3.573962152E-1,-6.498113275E-1
3.719498613E0,6.615292430E-1,7.605988383E-1,-2.583266199E-1
3.721753599E0,5.384911895E-1,6.924219131E-1,-2.114549875E-1
3.722987574E0,2.055960447E-1,1.384843737E-1,-1.981391907E-1
3.725821253E0,-4.820321798E-1,-1.288437366E0,-2.860234976E-1
3.727087844E0,-9.283779860E-1,-1.871669650E0,-4.111920893E-1
3.729924291E0,-1.268197298E0,-2.144910097E0,-5.006743073E-1
3.731305267E0,-1.401355386E0,-1.933454990E0,-5.262406468E-1
3.733906036E0,-1.233576298E0,-1.400822759E0,-4.873584807E-1
3.735307074E0,-7.712514400E-1,-5.725796223E-1,-5.411543250E-1
3.738033561E0,-1.310275346E-1,1.789644361E-1,-5.310343504E-1
3.739622690E0,3.179814517E-1,5.139901042E-1,-3.850930929E-1
3.741528036E0,5.566006899E-1,6.428871155E-1,-2.908172011E-1
3.743300997E0,6.673882008E-1,3.760383427E-1,-3.286340833E-1
3.745774190E0,7.792409658E-1,-3.675162494E-1,-4.697816372E-1
3.747373728E0,9.177253246E-1,-1.282578349E0,-6.375607848E-1
3.749981382E0,1.004544377E0,-1.815210581E0,-7.994809747E-1
3.751560036E0,9.880327582E-1,-1.424258590E0,-9.651296139E-1
3.754076613E0,9.177253246E-1,-5.603290796E-1,-9.518138170E-1
3.755664959E0,8.383631110E-1,1.443433315E-1,-6.572681665E-1
3.758455868E0,7.259777188E-1,5.262406468E-1,-2.913498282E-1
3.759899728E0,5.826996565E-1,5.113269091E-1,-2.716424316E-2
3.762051459E0,3.419498801E-1,-3.728425503E-2,8.894958347E-2
3.764007267E0,1.331580617E-2,-8.170578480E-1,3.036003746E-2
3.766262767E0,-3.818973005E-1,-1.470597625E0,-1.454086006E-1
3.767821844E0,-7.861651778E-1,-1.891909719E0,-3.307646215E-1
3.770286459E0,-1.036502361E0,-1.892442346E0,-5.209143162E-1
3.771974382E0,-1.043959141E0,-1.574460864E0,-6.210491657E-1
3.774472882E0,-7.366303802E-1,-8.207862377E-1,-7.169229984E-1
3.776178844E0,-2.428802997E-1,-1.118527725E-2,-6.870955825E-1
3.778888599E0,1.150485575E-1,4.431500137E-1,-4.308994710E-1
3.780562767E0,2.988066673E-1,8.069378138E-1,-1.699096859E-1
3.782965714E0,3.355582952E-1,6.423544884E-1,-1.635181010E-1
3.784182728E0,4.617921412E-1,-1.597896665E-1,-2.822950780E-1
3.787034714E0,7.430219650E-1,-1.593635678E0,-6.508765817E-1
3.788310959E0,8.069378138E-1,-1.850364327E0,-8.793758154E-1
3.791138099E0,7.382282615E-1,-1.196292043E0,-9.997506738E-1
3.792412728E0,6.588660479E-1,-2.700445354E-1,-8.745821118E-1
3.795241407E0,6.631271243E-1,3.312972486E-1,-5.171858668E-1
3.796520959E0,6.950850487E-1,6.583334208E-1,-2.066612989E-1
3.799344368E0,6.716492176E-1,5.305017233E-1,-1.970739290E-2
3.801157459E0,4.793690145E-1,-4.633900523E-2,4.474110901E-2
3.803387791E0,1.267664731E-1,-7.547398806E-1,-3.781688958E-2
3.804635613E0,-3.041329980E-1,-1.411475420E0,-1.656486243E-1
3.807455868E0,-7.099987864E-1,-1.805090666E0,-3.222424984E-1
3.808766305E0,-9.033442736E-1,-1.773132682E0,-4.894890189E-1
3.811558983E0,-8.548747301E-1,-1.408812284E0,-5.528722405E-1
3.812839267E0,-5.757754445E-1,-6.881608367E-1,-5.528722405E-1
3.815544151E0,-1.736381054E-1,-3.515372798E-2,-3.978762627E-1
3.816968190E0,1.475391239E-1,4.660531878E-1,-1.928128600E-1
3.819764214E0,3.557983339E-1,7.265103459E-1,-8.309062570E-2
3.821399920E0,4.777711034E-1,4.729774296E-1,-1.059938148E-1
3.823385767E0,5.906891227E-1,-3.190467060E-1,-2.530003190E-1
3.825200382E0,6.918892860E-1,-1.134506702E0,-5.246427655E-1
3.827814420E0,7.004113793E-1,-1.371528029E0,-8.415589333E-1
3.829174267E0,5.938849449E-1,-9.518138170E-1,-1.015197039E0
3.831639459E0,4.463458061E-1,-2.982740402E-1,-8.942894936E-1
3.833274267E0,3.792341352E-1,1.800296903E-1,-5.406216979E-1
3.835638997E0,4.255731404E-1,4.356931746E-1,-1.949433982E-1
3.837396959E0,4.735100567E-1,3.600593805E-1,5.273059011E-2
3.840219829E0,2.418150306E-1,-3.834952116E-1,2.583266199E-1
3.841603959E0,-1.118527651E-1,-9.134642482E-1,2.077265680E-1
3.843875074E0,-5.054680109E-1,-1.398159623E0,4.420847446E-2
3.845606651E0,-7.797735929E-1,-1.562742949E0,-2.418150306E-1
3.848082728E0,-8.676578999E-1,-1.410942793E0,-5.054680109E-1
3.849689113E0,-7.297061682E-1,-9.123989940E-1,-6.508765817E-1
3.852150882E0,-4.554005563E-1,-3.217098713E-1,-6.077333689E-1
3.853851920E0,-1.225054115E-1,2.215750068E-1,-4.063983858E-1
3.856344574E0,2.045307755E-1,6.386260390E-1,-2.141181529E-1
3.857942305E0,4.830974340E-1,6.066681147E-1,-7.190535218E-2
3.860756791E0,6.817692518E-1,1.070590764E-1,-4.846953228E-2
3.862407997E0,8.181231022E-1,-6.679208279E-1,-1.704423130E-1
3.864829945E0,8.564726114E-1,-1.125984550E0,-4.612595141E-1
3.866066959E0,7.600662112E-1,-9.129316211E-1,-7.914915085E-1
3.868898445E0,5.363606811E-1,-3.968110085E-1,-8.825715780E-1
3.870169382E0,3.206445873E-1,1.757686399E-2,-6.753776670E-1
3.873002022E0,2.178465873E-1,2.913498282E-1,-3.829625845E-1
3.874371344E0,2.332929224E-1,2.764361203E-1,-1.177117229E-1
3.877105368E0,2.450108230E-1,-3.941478580E-2,9.587380290E-2
3.878408036E0,1.033306494E-1,-4.506068528E-1,2.162486911E-1
3.881207637E0,-1.544633508E-1,-8.623315692E-1,2.402171344E-1
3.883424920E0,-5.704491138E-1,-1.262871027E0,2.183792181E-2
3.885255098E0,-6.567355394E-1,-1.274588943E0,-1.166464612E-1
3.886512305E0,-6.759102941E-1,-1.125984550E0,-3.840278387E-1
3.889322791E0,-5.038700700E-1,-7.020092607E-1,-5.720469952E-1
3.890599959E0,-2.631203234E-1,-2.114549875E-1,-5.544701219E-1
3.893425175E0,-4.793690145E-2,5.475459099E-1,-2.721750736E-1
3.894696843E0,9.001484513E-2,6.940197945E-1,-9.747169912E-2
3.897526983E0,3.185140789E-1,2.338255495E-1,-3.568635881E-2
3.898859343E0,6.482134461E-1,-5.416869521E-1,-1.571265012E-1
3.901628598E0,8.863000274E-1,-1.131310821E0,-4.032025933E-1
3.903361228E0,8.809736967E-1,-9.443569183E-1,-6.865629554E-1
3.905270767E0,6.679208279E-1,-3.478088379E-1,-7.515440583E-1
3.907035536E0,4.127899706E-1,1.704423130E-1,-5.571333170E-1
3.909411074E0,2.886866629E-1,4.799016416E-1,-3.142530024E-1
3.911091305E0,2.913498282E-1,3.526025414E-1,-9.480853379E-2
3.913513267E0,3.025351167E-1,-2.237055451E-2,3.781688958E-2
3.915273305E0,1.784317940E-1,-4.958806038E-1,1.129180342E-1
3.917506343E0,-4.740426689E-2,-9.283779860E-1,1.443433315E-1
3.919246190E0,-3.041329980E-1,-1.265534163E0,1.049285457E-1
3.922083983E0,-4.799016416E-1,-1.211205721E0,-8.202536404E-2
3.923442036E0,-5.241101384E-1,-9.214537740E-1,-3.115898669E-1
3.925800805E0,-4.090615511E-1,-4.783037305E-1,-4.490089715E-1
3.927524574E0,-2.439455539E-1,-1.001348570E-1,-4.213120937E-1
3.929994036E0,-1.134506613E-1,2.284992188E-1,-2.865561247E-1
3.931699036E0,-5.219795927E-2,5.507417321E-1,-1.928128600E-1
3.934052997E0,1.864212751E-2,4.287689328E-1,-1.225054115E-1
3.935804074E0,1.938781291E-1,-2.466087192E-1,-1.043959185E-1
3.938201767E0,4.660531878E-1,-9.715211987E-1,-2.311623842E-1
3.939863151E0,6.929545403E-1,-1.227184653E0,-5.022721887E-1
3.942625021E0,7.222493291E-1,-4.314320982E-1,-7.552725077E-1
3.944384228E0,5.874933600E-1,1.992044598E-1,-5.906891227E-1
3.946706098E0,4.942827225E-1,6.114618182E-1,-3.318298757E-1
3.947935843E0,5.001416802E-1,6.306365728E-1,-1.230380461E-1
3.950774098E0,5.134574771E-1,2.583266199E-1,7.456851192E-3
3.952063536E0,3.818973005E-1,-3.238403797E-1,7.669904083E-2
3.954876791E0,1.214401498E-1,-9.230516553E-1,1.123853996E-1
3.956175459E0,-1.816275865E-1,-1.352885842E0,7.829693705E-2
3.958979406E0,-4.074636400E-1,-1.439704895E0,-5.166532472E-2
3.960533882E0,-5.336974859E-1,-1.166997194E0,-2.354234457E-1
3.963082175E0,-5.539374948E-1,-5.672533512E-1,-3.968110085E-1
3.964929497E0,-4.575310946E-1,-3.834952042E-2,-4.000068009E-1
3.967123367E0,-3.073287904E-1,2.215750068E-1,-2.695119083E-1
3.968349267E0,-1.901497096E-1,4.814995229E-1,-1.906823367E-1
3.971191329E0,-8.735168725E-2,3.952131271E-1,-1.336906850E-1
3.972476343E0,2.503371425E-2,-2.300971150E-1,-8.468852192E-2
3.975293290E0,2.524676621E-1,-9.598032832E-1,-1.880191714E-1
3.976589382E0,5.576659441E-1,-1.329450011E0,-4.479437172E-1
3.979394983E0,7.430219650E-1,-9.097358584E-1,-7.424893379E-1
3.980842305E0,6.631271243E-1,-1.432780623E-1,-7.504788041E-1
3.983497252E0,4.490089715E-1,4.617921412E-1,-4.697816372E-1
3.985099497E0,3.435477912E-1,7.403587699E-1,-9.853696078E-2
3.987049920E0,3.781688809E-1,5.576659441E-1,-3.621899337E-2
3.988861920E0,4.090615511E-1,-1.491370238E-2,-5.326322280E-4
3.991283382E0,2.519350350E-1,-6.695187092E-1,-3.728425596E-3
3.992979766E0,-4.154531285E-2,-1.241565704E0,1.864212751E-2
3.995362574E0,-3.083940744E-1,-1.589907169E0,-9.587380104E-3
3.997115728E0,-4.074636400E-1,-1.471130252E0,-1.342233270E-1
3.999385574E0,-3.366235793E-1,-6.103965044E-1,-3.414172530E-1
4.001123920E0,-2.247707993E-1,-5.379585549E-2,-3.126551211E-1
4.003951367E0,-1.251685768E-1,2.407497615E-1,-1.800296903E-1
4.005499459E0,-6.391586363E-2,5.166532397E-1,-1.576591432E-1
4.007522305E0,-5.752427876E-2,4.117247164E-1,-1.773665249E-1
4.009218728E0,-6.018744037E-2,-2.253034264E-1,-2.055960447E-1
4.011780997E0,3.355583176E-2,-9.885654449E-1,-3.217098713E-1
4.013342882E0,1.890844405E-1,-1.339570045E0,-5.704491138E-1
4.015778843E0,2.918824553E-1,-9.305084944E-1,-8.175904751E-1
4.017486651E0,2.167813182E-1,-2.806971967E-1,-7.749798894E-1
4.019958343E0,1.177117229E-1,2.689792812E-1,-4.953479767E-1
4.021604766E0,1.789644361E-1,5.305017233E-1,-2.242381722E-1
4.024361944E0,3.616572917E-1,4.058657587E-1,-7.829693705E-2
4.026459920E0,4.793690145E-1,-3.089267015E-2,-2.130528912E-3
4.028427790E0,3.776362538E-1,-5.981460214E-1,4.420847446E-2
4.029745651E0,1.422128081E-1,-1.092428684E0,5.379585549E-2
4.032496059E0,-7.403588295E-2,-1.349690080E0,-4.793690145E-2
4.033793613E0,-1.709749401E-1,-1.192030907E0,-2.753708661E-1
