"Time (s)","Acceleration x (m/s^2)","Acceleration y (m/s^2)","Acceleration z (m/s^2)"
6.020361000E-3,-5.913678408E-1,9.548076630E0,4.513070107E0
7.910577000E-3,-2.729389906E0,1.053448772E1,4.378994942E0
1.010701500E-2,-4.122815132E0,1.082418633E1,3.830722809E0
1.125373100E-2,-4.127603531E0,1.018493366E1,3.476380825E0
1.417463000E-2,-2.504334927E0,8.834604263E0,3.612850428E0
1.534930800E-2,3.112462163E-2,7.256825447E0,4.065354347E0
1.827705300E-2,2.205059767E0,6.327875137E0,4.730942726E0
1.946519300E-2,3.014299870E0,6.646304131E0,5.528211594E0
2.215315400E-2,1.886630893E0,7.886500359E0,6.217741966E0
2.359488500E-2,-5.722141862E-1,9.437943459E0,6.651092529E0
2.648209200E-2,-2.703053713E0,1.066377449E1,6.567295074E0
2.806223100E-2,-2.477998734E0,1.088643551E1,5.293580055E0
2.990119300E-2,-1.355118155E0,1.050575733E1,4.563348293E0
3.172892300E-2,1.879448295E0,9.323021889E0,2.774879694E0
3.419650000E-2,4.991910458E0,8.200140953E0,1.043871999E0
3.598323100E-2,6.306327343E0,7.778761387E0,-2.394201607E-2
3.823150000E-2,5.181052685E0,8.358158112E0,-2.418143749E-1
3.992315400E-2,2.059013367E0,9.691728592E0,2.346317619E-1
4.229177000E-2,-1.735796213E0,1.088882923E1,9.552865028E-1
4.405027000E-2,-4.438849926E0,1.114740276E1,1.728613615E0
4.694401500E-2,-4.072536945E0,9.708487511E0,2.987963676E0
4.833338500E-2,-1.546654344E0,8.271966934E0,3.797203779E0
5.044203900E-2,1.316810966E0,6.897695065E0,4.108449936E0
5.211673100E-2,3.514688015E0,6.114790916E0,3.943250179E0
5.453500000E-2,4.575319290E0,6.279991150E0,3.670311213E0
5.623453900E-2,4.295197964E0,7.304709435E0,3.751713991E0
5.860138500E-2,2.614468336E0,8.542511940E0,4.271255970E0
6.033342300E-2,-1.125274822E-1,9.615114212E0,5.039794445E0
6.273727000E-2,-3.047818661E0,1.056082344E1,5.822698593E0
6.446707700E-2,-5.391742229E0,1.123598862E1,6.196194172E0
6.735493800E-2,-6.394912720E0,1.138203526E1,5.858611584E0
6.885303900E-2,-5.434837818E0,1.088882923E1,4.771644115E0
7.142197600E-2,-2.619256735E0,1.018972206E1,3.588908434E0
7.256850000E-2,1.055842996E0,9.583989143E0,2.817975283E0
7.546773100E-2,4.079719543E0,9.021351814E0,2.375048161E0
7.667988500E-2,5.410895824E0,8.487444878E0,2.188300371E0
7.959359100E-2,4.896142483E0,8.185775757E0,2.257732153E0
8.076615400E-2,3.167528868E0,8.274360657E0,2.671929121E0
8.367838500E-2,1.082179189E0,8.963891029E0,3.327940464E0
8.491850000E-2,-9.552865028E-1,9.962273598E0,3.830722809E0
8.779939900E-2,-2.691082716E0,1.068532181E1,3.897760391E0
8.981503900E-2,-3.778050184E0,1.049378586E1,3.464409828E0
9.185297600E-2,-3.536235809E0,1.005085850E1,3.306392431E0
9.311234600E-2,-2.094926596E0,8.786720276E0,3.136404276E0
9.592147600E-2,8.858546615E-2,7.357381821E0,3.241749048E0
9.710230800E-2,2.111685991E0,6.490680695E0,3.758896589E0
1.000245530E-1,3.007117271E0,6.813898087E0,4.774038315E0
1.012215770E-1,1.987187386E0,7.996633530E0,5.856217384E0
1.039856540E-1,-1.936909199E0,1.014902115E1,6.713341713E0
1.054143080E-1,-3.651157618E0,1.097980881E1,6.368576527E0
1.082307840E-1,-3.174711466E0,1.089361763E1,5.432443619E0
1.099089620E-1,-4.572925270E-1,9.921571732E0,4.024652958E0
1.116906930E-1,3.375824451E0,8.540117264E0,2.398990154E0
1.134900770E-1,6.325480938E0,7.529764175E0,1.024718285E0
1.159432310E-1,6.749254704E0,7.522581577E0,3.232172430E-1
1.176640000E-1,4.405331135E0,8.564059258E0,3.615244627E-1
1.200217310E-1,3.280056417E-1,1.005564690E1,9.433154464E-1
1.217568850E-1,-3.552995205E0,1.093431950E1,1.738190413E0
1.240702700E-1,-5.465962410E0,1.067574501E1,2.612074137E0
1.257977310E-1,-4.754884720E0,9.576807022E0,3.481169224E0
1.287058990E-1,-2.212242365E0,8.192957878E0,4.118026733E0
1.299981930E-1,8.140285611E-1,6.952761650E0,4.163516521E0
1.322776930E-1,3.196259260E0,6.313509941E0,3.682282209E0
1.340201540E-1,4.369418144E0,6.505045891E0,3.126827478E0
1.365907310E-1,4.276044369E0,7.479485989E0,3.031059265E0
1.381167310E-1,2.947262287E0,8.710105896E0,3.517082214E0
1.405100000E-1,5.889736414E-1,9.758766174E0,4.249708176E0
1.422171160E-1,-2.238578558E0,1.066616821E1,4.946420670E0
1.446321160E-1,-4.745307922E0,1.129344940E1,5.233725071E0
1.463385390E-1,-6.100425720E0,1.152808094E1,4.999093056E0
1.492408990E-1,-5.580883980E0,1.118092155E1,4.237737179E0
1.508302700E-1,-1.482010841E0,1.016817474E1,3.031059265E0
1.533148990E-1,2.020706177E0,9.545681953E0,2.621650934E0
1.545754620E-1,3.442862034E0,9.239224434E0,2.518700123E0
1.573830140E-1,5.094861031E0,8.312667847E0,2.530671120E0
1.585575000E-1,4.106055737E0,7.936778545E0,2.827552319E0
1.614861300E-1,2.331952572E0,8.233659744E0,3.493140221E0
1.626741160E-1,3.280056417E-1,9.215282440E0,4.278438568E0
1.655658460E-1,-1.666364431E0,1.021366405E1,4.611232281E0
1.667971160E-1,-3.186682463E0,1.068053341E1,4.378994942E0
1.696926680E-1,-3.706224203E0,1.030703831E1,3.849876404E0
1.714897310E-1,-2.877830505E0,9.253589630E0,3.402160645E0
1.737368600E-1,-9.888052940E-1,7.999027729E0,3.268085241E0
1.749573460E-1,1.079784989E0,6.993463039E0,3.402160645E0
1.778044760E-1,2.341529369E0,6.983886242E0,4.029441357E0
1.789948080E-1,2.073378563E0,7.852981567E0,4.908113480E0
1.819039230E-1,1.891419291E-1,9.100360870E0,5.671864033E0
1.831973850E-1,-2.173935175E0,1.029027843E1,6.042964935E0
1.858103850E-1,-3.478775024E0,1.090080070E1,5.765237808E0
1.872216930E-1,-2.782062292E0,1.072602367E1,4.932055473E0
1.901130140E-1,-6.464344263E-2,9.799467087E0,3.550601006E0
1.916561540E-1,4.903325081E0,8.068459511E0,1.321599364E0
1.935482690E-1,5.856217384E0,7.721300602E0,7.805097699E-1
1.953621540E-1,5.851428986E0,7.781155586E0,3.112462163E-1
1.978569620E-1,3.481169224E0,8.784325600E0,6.536170840E-1
1.994648460E-1,-2.609679997E-1,1.010113716E1,1.484405041E0
2.020716160E-1,-3.675099611E0,1.069729328E1,2.372653961E0
2.038129620E-1,-5.111620426E0,1.020887566E1,3.141192675E0
2.059767690E-1,-4.027047157E0,9.105149269E0,3.921702385E0
2.076876540E-1,-1.357512355E0,7.874529362E0,4.465186119E0
2.105672060E-1,2.691082716E0,6.524199486E0,4.139574528E0
2.118176540E-1,4.252102375E0,6.490680695E0,3.459621429E0
2.141355390E-1,4.584896088E0,7.213729858E0,2.997540474E0
2.158934620E-1,3.617638826E0,8.310274124E0,3.078943491E0
2.183531930E-1,1.561019540E0,9.318233490E0,3.586514235E0
2.201550770E-1,-1.106121182E0,1.034534550E1,4.297592163E0
2.224266160E-1,-3.871424198E0,1.128387260E1,4.819528103E0
2.241641930E-1,-5.920860767E0,1.174355888E1,4.711789131E0
2.265288850E-1,-6.224924564E0,1.154244614E1,3.921702385E0
2.282490770E-1,-4.347870350E0,1.082658005E1,2.875436306E0
2.311128600E-1,-8.619126081E-1,1.006522369E1,2.197877169E0
2.327815390E-1,2.782062292E0,9.368511200E0,1.963245392E0
2.351907830E-1,5.030217648E0,8.705317497E0,2.018311977E0
2.365157690E-1,5.183446884E0,8.178592682E0,2.358288765E0
2.392601290E-1,3.660734415E0,7.991845131E0,3.031059265E0
2.404545000E-1,1.508347034E0,8.425195694E0,4.000710964E0
2.433631680E-1,-6.081272364E-1,9.330204010E0,4.917690277E0
2.445621160E-1,-2.363077164E0,1.004128170E1,5.281609058E0
2.474603460E-1,-3.323152065E0,1.024718285E1,5.111620426E0
2.486782690E-1,-3.282450438E0,9.821015358E0,4.690241337E0
2.515695910E-1,-2.281674147E0,8.796297073E0,4.228160381E0
2.533426540E-1,3.136404157E-1,7.108384609E0,3.857059002E0
2.555974620E-1,1.158793569E0,6.806715488E0,3.943250179E0
2.567876540E-1,2.233790159E0,7.017405033E0,4.572925091E0
2.596792450E-1,1.934514999E0,7.994239330E0,5.449203014E0
2.608673850E-1,-8.978256583E-1,9.785101891E0,6.098031521E0
2.637713460E-1,-2.736572504E0,1.074996567E1,5.779603004E0
2.650128460E-1,-3.023876667E0,1.108036518E1,4.867412090E0
2.676547310E-1,-1.211466074E0,1.064940929E1,3.485957623E0
2.690936540E-1,2.133233786E0,9.557653427E0,1.819593310E0
2.719897450E-1,5.353435040E0,8.377311707E0,3.351882398E-1
2.735077690E-1,6.694188118E0,7.886500359E0,-4.285621047E-1
2.754350000E-1,5.394136429E0,8.470685959E0,-2.729389966E-1
2.772644620E-1,1.896207690E0,9.682151794E0,5.363011956E-1
2.797198460E-1,-2.303221941E0,1.054166985E1,1.534683347E0
2.813629620E-1,-5.152322292E0,1.038604736E1,2.545036316E0
2.837739620E-1,-5.401319027E0,9.459490776E0,3.658340216E0
2.854762690E-1,-3.402160645E0,8.310274124E0,4.747702122E0
2.879088080E-1,-4.620809257E-1,7.283161640E0,5.288791656E0
2.896727310E-1,2.185906172E0,6.698976517E0,5.142745018E0
2.924727060E-1,3.902548790E0,6.653486729E0,4.601655483E0
2.937916160E-1,4.537012100E0,7.082048416E0,4.139574528E0
2.959938850E-1,4.060565948E0,7.860164165E0,4.185064793E0
2.976624620E-1,2.513911724E0,8.791508675E0,4.654327869E0
3.000823460E-1,7.182604820E-2,9.816226959E0,5.111620426E0
3.018500770E-1,-2.798821688E0,1.072841740E1,5.123591423E0
3.041468080E-1,-5.207388878E0,1.129344940E1,4.532223701E0
3.058687310E-1,-6.064512730E0,1.148738003E1,3.576937437E0
3.083016540E-1,-4.843470097E0,1.132457447E1,2.628833532E0
3.100060000E-1,-1.948880196E0,1.091755962E1,1.991975784E0
3.128843980E-1,1.391031146E0,1.016099167E1,1.659181833E0
3.144018850E-1,4.479551315E0,8.518569946E0,1.699883223E0
3.169529370E-1,4.539406300E0,7.692570210E0,2.243366957E0
3.181523850E-1,3.323152065E0,7.644686222E0,3.150769472E0
3.210214370E-1,1.295263171E0,8.523358345E0,4.292803764E0
3.222270000E-1,-1.077390790E0,9.662998199E0,5.114014626E0
3.251245140E-1,-3.102885485E0,1.038125896E1,5.446808815E0
3.263051920E-1,-4.043806553E0,1.014183807E1,5.255272865E0
3.292281160E-1,-3.445256233E0,9.124302864E0,4.807557106E0
3.304502690E-1,-1.549048543E0,7.927201748E0,4.431667328E0
3.333307060E-1,6.799532771E-1,7.096413612E0,4.288015366E0
3.350885770E-1,2.236184359E0,7.196970463E0,4.632780075E0
3.373707060E-1,2.351106167E0,7.948749542E0,5.161899090E0
3.385167690E-1,9.217676520E-1,8.956708908E0,5.595249176E0
3.414393600E-1,-1.079784989E0,1.006522369E1,5.770026207E0
3.426181160E-1,-2.298433542E0,1.089601231E1,5.413290024E0
3.455412310E-1,-1.843535304E0,1.104205799E1,4.467580318E0
3.467320000E-1,3.208230138E-1,1.021127033E1,2.863465309E0
3.494430390E-1,3.320757866E0,9.260771751E0,1.458068848E0
3.508618850E-1,5.532999992E0,8.576030731E0,5.291185975E-1
3.537480520E-1,5.607220173E0,8.226476669E0,-1.364694983E-1
3.554148850E-1,1.711854219E0,9.399636269E0,7.302315235E-1
3.572048850E-1,-1.675941236E-2,9.854534149E0,1.271321058E0
3.590053850E-1,-2.940079689E0,1.003649330E1,2.252943754E0
3.614657690E-1,-4.515464306E0,9.308655739E0,3.217807055E0
3.631028850E-1,-4.395754337E0,8.671798706E0,4.604049683E0
3.655065770E-1,-2.552218914E0,8.389283180E0,5.674258232E0
3.672063460E-1,1.005564705E-1,8.039729118E0,5.521028996E0
3.697936920E-1,3.368641853E0,7.321468830E0,4.053383350E0
3.713664230E-1,5.090072632E0,7.307103634E0,3.514688015E0
3.742220900E-1,6.105214119E0,7.941566944E0,3.734954596E0
3.754571160E-1,5.319916248E0,8.717288017E0,3.866635799E0
3.778243850E-1,2.384624958E0,9.531316757E0,3.490746021E0
3.795394620E-1,-1.635239720E0,1.048899746E1,2.683900118E0
3.819401540E-1,-5.224148273E0,1.174116516E1,2.025494576E0
3.836381150E-1,-7.299921036E0,1.272039318E1,1.575384736E0
3.860761150E-1,-7.208941460E0,1.255998230E1,7.589619160E-1
3.878421540E-1,-5.042188644E0,1.179144382E1,2.705447972E-1
3.901512690E-1,-1.764526606E0,1.078587818E1,5.650315881E-1
3.918725770E-1,1.235408068E0,9.382876396E0,1.309628367E0
3.947572830E-1,2.930502892E0,7.814674377E0,2.288856745E0
3.962855770E-1,3.253720045E0,6.849811077E0,3.557783842E0
3.988342060E-1,2.525882721E0,7.211335659E0,5.260061264E0
4.000341540E-1,9.433154464E-1,8.279149055E0,6.835445881E0
4.029027440E-1,-1.106121182E0,8.927978516E0,7.651868820E0
4.041091150E-1,-2.650381327E0,8.659827232E0,7.711723804E0
4.070056290E-1,-2.753331900E0,7.905653954E0,7.515398979E0
4.081997310E-1,-1.628057122E0,7.201758862E0,7.347805023E0
4.111072310E-1,-3.232172430E-1,6.811503887E0,7.031770229E0
4.123091920E-1,4.046200812E-1,7.098807812E0,6.619967937E0
4.152118980E-1,3.471592367E-1,7.905653954E0,5.973533154E0
4.169751540E-1,-1.216254473E0,9.277531624E0,4.723760128E0
4.192565520E-1,-1.884236693E0,9.658209801E0,4.290409565E0
4.204371540E-1,-2.466027737E0,1.059913063E1,3.663128614E0
4.233251670E-1,-6.416460276E-1,1.116655636E1,1.970427990E0
4.245221540E-1,1.323993564E0,1.046984386E1,3.112462163E-1
4.274285130E-1,3.263296843E0,9.270348549E0,-1.197100878E0
4.286044620E-1,4.565742493E0,8.638279915E0,-1.572990537E0
4.313168080E-1,4.357447147E0,8.774748802E0,-8.499416113E-1
4.327553460E-1,2.269703150E0,9.150638580E0,8.858546615E-2
4.356340520E-1,-8.212111592E-1,9.469067574E0,1.209071875E0
4.372969230E-1,-3.308786631E0,9.224859238E0,2.260126352E0
4.390986150E-1,-4.249708176E0,8.619126320E0,3.560178041E0
4.408830770E-1,-3.718195200E0,7.979874134E0,4.953603268E0
4.433774620E-1,-2.190694571E0,7.517793179E0,5.815515995E0
4.449842310E-1,-2.466027737E-1,7.297526836E0,5.899312973E0
4.474144620E-1,1.570596337E0,7.223306656E0,5.331887245E0
4.490710770E-1,2.954444885E0,7.364564419E0,4.714183331E0
4.514701540E-1,3.701435804E0,7.745242596E0,4.469974518E0
4.532690000E-1,3.536235809E0,8.307879448E0,4.575319290E0
4.561065900E-1,2.104503393E0,8.999804497E0,4.627991676E0
4.573541540E-1,-4.237737060E-1,9.876082420E0,4.228160381E0
4.597157310E-1,-3.167528868E0,1.089361763E1,3.303998232E0
4.614390000E-1,-5.137956619E0,1.162624359E1,2.075772762E0
4.638517690E-1,-5.659893036E0,1.177707863E1,1.106121182E0
4.655218460E-1,-4.563348293E0,1.149456215E1,1.015141487E0
4.679423080E-1,-2.240972757E0,1.077151299E1,1.503558636E0
4.696617310E-1,1.412578970E-1,9.624691010E0,2.087743998E0
4.720765770E-1,1.946485996E0,7.829039574E0,3.179499865E0
4.737573850E-1,2.027888775E0,7.656657219E0,4.644751072E0
4.766550130E-1,1.142034173E0,8.123526573E0,6.418854713E0
4.782594230E-1,-6.392518282E-1,8.422801971E0,7.738059998E0
4.807335130E-1,-2.370259762E0,8.317456245E0,8.331821442E0
4.818828080E-1,-2.772485495E0,7.955932140E0,8.190564156E0
4.848017440E-1,-1.709460020E0,7.620744228E0,7.580042362E0
4.861167310E-1,-1.412578970E-1,7.453149796E0,6.775590897E0
4.889047050E-1,1.240196466E0,7.673416615E0,5.913678169E0
4.900931920E-1,1.956062794E0,8.298302650E0,5.135562420E0
4.930072690E-1,1.618480325E0,9.162610054E0,4.618414879E0
4.942332310E-1,5.889736414E-1,1.013704967E1,4.209006786E0
4.971112050E-1,-2.274491638E-1,1.089122391E1,3.440467834E0
4.988350770E-1,2.466027737E-1,1.107078838E1,1.316810966E0
5.011465000E-1,8.164227605E-1,1.082658005E1,5.291185975E-1
5.023667690E-1,2.255337954E0,1.018732834E1,-5.889736414E-1
5.052170130E-1,3.514688015E0,9.641449928E0,-9.337386489E-1
5.064086150E-1,3.835511208E0,9.445125580E0,-5.865794420E-1
5.093200130E-1,2.868253708E0,9.583989143E0,1.891419291E-1
5.105235770E-1,9.816226959E-1,9.660603523E0,1.127668977E0
5.132053850E-1,-8.379706144E-1,9.423578262E0,2.391807556E0
5.146528080E-1,-1.695094824E0,8.635885239E0,3.811569214E0
5.175258590E-1,-1.568202138E0,7.584830761E0,5.197812080E0
5.191405380E-1,-5.985504389E-1,6.545747280E0,6.397306919E0
5.210652690E-1,-2.298433632E-1,6.581660271E0,6.524199486E0
5.227893850E-1,4.501099288E-1,7.070077419E0,6.397306919E0
5.252347310E-1,1.158793569E0,7.651868820E0,5.796362400E0
5.270817690E-1,2.497152328E0,8.346187592E0,4.955997467E0
5.292974230E-1,3.251325846E0,8.741230011E0,4.699818134E0
5.309814230E-1,3.280056238E0,9.311050415E0,4.541800499E0
5.333560380E-1,2.140416384E0,9.926360130E0,3.871424198E0
5.351162310E-1,2.489969730E-1,1.047223854E1,2.406172752E0
5.379904360E-1,-1.505952835E0,1.087446404E1,6.129156351E-1
5.393480380E-1,-2.494758129E0,1.118092155E1,-5.506663918E-1
5.415031150E-1,-2.568978310E0,1.153047562E1,-5.626373887E-1
5.431827690E-1,-2.032677174E0,1.166215611E1,5.027823523E-2
5.456515770E-1,-1.582567334E0,1.124556541E1,7.206547260E-1
5.472887310E-1,-1.434126854E0,1.027591324E1,1.551442742E0
5.497245380E-1,-8.930372596E-1,9.124302864E0,2.947262287E0
5.513739620E-1,3.567360640E-1,8.434772491E0,5.032611847E0
5.538174230E-1,1.381454349E0,8.022970200E0,6.943184853E0
5.554913850E-1,1.359906554E0,7.577648163E0,7.946355343E0
5.583988590E-1,5.937620401E-1,7.302315235E0,8.269572258E0
5.599116920E-1,-2.370259613E-1,7.266402245E0,8.322244644E0
5.624650130E-1,-6.943184733E-1,7.376535416E0,8.374917984E0
5.636096540E-1,-7.422025204E-1,7.292738438E0,8.145073891E0
5.665328200E-1,-2.681505978E-1,7.474697590E0,7.783549786E0
5.678058080E-1,5.339069963E-1,8.056488991E0,7.117961884E0
5.706367430E-1,8.619126081E-1,8.798690796E0,6.090848923E0
5.718749230E-1,5.075707436E-1,9.804255486E0,5.082890034E0
5.747157690E-1,2.442085743E-1,1.073560047E1,3.888183594E0
5.759570770E-1,6.799532771E-1,1.124077702E1,2.384624958E0
5.788442430E-1,1.766920805E0,1.093431950E1,4.716577232E-1
5.805683080E-1,4.048594952E0,1.001973438E1,-2.037465572E0
5.828708460E-1,4.699818134E0,9.947908401E0,-2.422932148E0
5.840629230E-1,5.011064053E0,1.003649330E1,-2.568978310E0
5.869575130E-1,2.389413357E0,1.046505547E1,-1.209071875E0
5.882059620E-1,-1.580173075E-1,1.020648193E1,9.816227108E-2
5.910404620E-1,-2.341529369E0,9.646238327E0,1.874659896E0
5.922413850E-1,-3.043030262E0,8.832210541E0,3.892971992E0
5.949407690E-1,-1.963245392E0,7.668628216E0,4.984727859E0
5.963678080E-1,-2.585737705E-1,7.031770229E0,5.750872612E0
5.992677820E-1,1.156399369E0,6.725312710E0,5.753266811E0
6.008747690E-1,2.116474390E0,7.122750282E0,5.619191170E0
6.028876920E-1,2.923320293E0,7.702147007E0,5.451597214E0
6.045336540E-1,3.684676409E0,7.951143742E0,4.891354084E0
6.070236540E-1,4.278438568E0,8.513781548E0,4.704606533E0
6.087309230E-1,4.321534157E0,9.107542992E0,4.244919777E0
6.110390770E-1,3.050212860E0,1.001973438E1,3.722983599E0
6.127368460E-1,6.607996821E-1,1.108275986E1,3.081337690E0
6.150900000E-1,-1.570596337E0,1.165497398E1,1.924938202E0
6.168597690E-1,-3.059789658E0,1.176750088E1,7.900865674E-1
6.197483970E-1,-3.347094059E0,1.223676491E1,8.236053586E-1
6.211214610E-1,-1.723825216E0,1.227507210E1,1.249773264E0
6.233365380E-1,4.357447028E-1,1.088404083E1,8.307880163E-1
6.250733080E-1,1.472434044E0,9.430760384E0,1.470039845E0
6.274868080E-1,2.030282974E0,8.233659744E0,2.647987127E0
6.291561540E-1,2.264914751E0,8.118738174E0,4.434061527E0
6.318479230E-1,1.288080573E0,8.844181061E0,6.528987885E0
6.332683080E-1,-1.235408068E0,9.325415611E0,7.817068577E0
6.357089610E-1,-1.958456993E0,8.805873871E0,7.697358608E0
6.377929610E-1,-1.776497602E0,7.852981567E0,7.335834026E0
6.402870120E-1,-8.116343617E-1,7.383718014E0,7.417236805E0
6.418150000E-1,5.147533417E-1,6.979097843E0,6.780379295E0
6.443638970E-1,1.058237195E0,6.936002254E0,5.588066578E0
6.455007310E-1,4.572925270E-1,7.927201748E0,4.800374508E0
6.484317050E-1,-2.489969730E-1,9.667786598E0,4.503493309E0
6.496760000E-1,-7.086837292E-1,1.102290440E1,3.909731388E0
6.525345890E-1,-1.048660398E0,1.155202293E1,3.055001259E0
6.537548850E-1,-3.519476354E-1,1.126950741E1,1.747767210E0
6.566370890E-1,1.484405041E0,1.058716011E1,1.651999205E-1
6.578724230E-1,3.220201254E0,9.847352028E0,-1.063025594E0
6.607396660E-1,3.689464808E0,9.246406555E0,-1.821987510E0
6.625268080E-1,2.047042370E0,9.612719536E0,-7.230489254E-1
6.647734350E-1,1.039083481E0,9.813833237E0,-9.576806799E-3
6.659171920E-1,-1.470039845E0,9.907206535E0,1.728613615E0
6.688416660E-1,-3.536235809E0,9.416395187E0,3.703830004E0
6.700508080E-1,-3.725377798E0,8.049305916E0,5.111620426E0
6.729447050E-1,-2.276885748E0,6.672640324E0,6.241683960E0
6.741409230E-1,-2.609679997E-1,5.916072369E0,7.065289021E0
6.768317310E-1,1.508347034E0,5.877765179E0,6.885724068E0
6.782682690E-1,2.391807556E0,6.701370716E0,6.047753334E0
6.811511660E-1,2.430114746E0,7.730877399E0,4.685452938E0
6.826846150E-1,2.602497339E0,9.095572472E0,3.043030262E0
6.848454610E-1,2.832340717E0,9.390059471E0,2.707842112E0
6.864186540E-1,3.066972494E0,9.727641106E0,2.219424963E0
6.888553460E-1,2.506729126E0,9.974244118E0,1.800439715E0
6.904900770E-1,7.661445439E-2,1.043871975E1,2.753331959E-1
6.929220770E-1,-2.224213362E0,1.119768143E1,-6.416460276E-1
6.946054610E-1,-4.232948780E0,1.198058510E1,-1.010353088E0
6.969738850E-1,-5.125985622E0,1.269166279E1,-3.136404157E-1
6.987003460E-1,-4.647145271E0,1.246181965E1,8.116343617E-1
7.016161270E-1,-3.227383852E0,1.089361763E1,1.886630893E0
7.030241920E-1,-1.240196466E0,8.738836288E0,3.354276657E0
7.052011150E-1,1.012747288E0,7.038952827E0,5.346252441E0
7.069407310E-1,2.439691544E0,6.531382084E0,7.754819393E0
7.093725770E-1,2.070984364E0,6.732495308E0,9.660603523E0
7.110527690E-1,3.854664862E-1,7.055712223E0,1.046266174E1
7.134209610E-1,-1.470039845E0,7.335834026E0,1.041477776E1
7.151604610E-1,-2.576161146E0,7.424419403E0,9.797073364E0
7.175869610E-1,-2.724601507E0,7.395689011E0,8.911218643E0
7.195094230E-1,-2.195482969E0,7.369352818E0,7.759607792E0
7.221677040E-1,-1.592144132E0,7.706935406E0,6.440402508E0
7.238126920E-1,-1.728613615E0,8.870517731E0,4.228160381E0
7.262480500E-1,-1.941697598E0,9.404424667E0,3.459621429E0
7.274075000E-1,-2.152387381E0,1.069729328E1,2.073378563E0
7.303167310E-1,-1.635239720E0,1.178904915E1,6.799532771E-1
7.316033840E-1,-2.729389966E-1,1.195903778E1,-1.072602391E0
7.344212040E-1,1.544260144E0,1.117134476E1,-2.885013103E0
7.357202690E-1,3.078943491E0,1.010353088E1,-4.027047157E0
7.385116920E-1,2.741360903E0,9.437943459E0,-3.600879431E0
7.397285000E-1,6.105214357E-1,9.964667320E0,-1.929726601E0
7.426299730E-1,-2.075772762E0,1.046984386E1,5.985504389E-2
7.443498080E-1,-4.256890774E0,1.021127033E1,2.147598982E0
7.466657310E-1,-4.759673119E0,8.918401718E0,4.244919777E0
7.478303840E-1,-3.201047659E0,7.115567684E0,6.239289761E0
7.507368580E-1,-6.129156351E-1,5.602431774E0,7.941566944E0
7.519661540E-1,1.493981838E0,4.766855717E0,8.676587105E0
7.548366540E-1,2.317587137E0,4.939238071E0,8.410830498E0
7.560366540E-1,2.128445387E0,6.019022942E0,7.469909191E0
7.587181920E-1,1.671152830E0,7.419631004E0,6.378153324E0
7.601631150E-1,1.438915253E0,8.659827232E0,5.535394192E0
7.630467810E-1,1.498770237E0,9.442731857E0,4.733336926E0
7.648383460E-1,1.412579060E0,9.923966408E0,3.696647406E0
7.664690000E-1,7.302315235E-1,1.033576870E1,2.305616140E0
7.683525380E-1,-4.357447028E-1,1.070687008E1,5.386953950E-1
7.709047310E-1,-1.666364431E0,1.126471901E1,-9.672574997E-1
7.724751150E-1,-2.511517525E0,1.192312431E1,-1.711854219E0
7.747953460E-1,-2.683900118E0,1.244027233E1,-1.687912226E0
7.764785770E-1,-2.231395960E0,1.240196514E1,-1.192312479E0
7.788333840E-1,-1.319205165E0,1.155681133E1,-3.782838583E-1
7.806127690E-1,-9.097966552E-2,1.016099167E1,1.070208192E0
7.834917430E-1,1.376665950E0,8.753201485E0,3.220201254E0
7.847928080E-1,2.446874142E0,7.831433773E0,5.772420406E0
7.869865000E-1,2.365471363E0,7.343016624E0,8.027758598E0
7.886799230E-1,1.120486379E0,7.103596210E0,9.416395187E0
7.910913080E-1,-5.434837937E-1,7.060500622E0,9.971850395E0
7.928202310E-1,-1.836352706E0,7.082048416E0,9.840168953E0
7.951540000E-1,-2.578555346E0,7.173028469E0,9.394847870E0
7.968877310E-1,-2.578555346E0,7.376535416E0,8.259995461E0
7.993033840E-1,-2.161964178E0,7.896077156E0,7.364564419E0
8.010284610E-1,-1.932120800E0,8.777143478E0,6.435614109E0
8.039063580E-1,-1.774103403E0,9.797073364E0,5.272032261E0
8.054780770E-1,-1.300051570E0,1.070926380E1,3.890577793E0
8.079732420E-1,-1.292868853E-1,1.114979744E1,2.264914751E0
8.092591150E-1,1.630451322E0,1.091755962E1,3.878606856E-1
8.120888190E-1,3.421314240E0,1.027591324E1,-1.309628367E0
8.132647310E-1,4.395754337E0,9.679757118E0,-2.533065319E0
8.161931270E-1,3.830722809E0,9.576807022E0,-2.892195702E0
8.173906540E-1,1.924938202E0,1.007719517E1,-2.252943754E0
8.202931540E-1,-6.105214357E-1,1.071405220E1,-9.504981041E-1
8.215365000E-1,-2.863465309E0,1.087207031E1,7.493851185E-1
8.244018190E-1,-3.756502390E0,9.995792389E0,2.415749550E0
8.261411920E-1,-1.671152830E0,7.481880188E0,4.462791920E0
8.284416150E-1,-4.860229492E-1,6.751648903E0,4.996698856E0
8.296716150E-1,1.632845521E0,5.834669590E0,5.595249176E0
8.325120120E-1,2.722207308E0,5.889736176E0,5.465962410E0
8.337064610E-1,2.645592928E0,6.718130112E0,4.824316502E0
8.366158190E-1,1.936909199E0,7.888894558E0,4.173093796E0
8.378565380E-1,1.173158884E0,9.004592896E0,3.916913986E0
8.405080000E-1,7.038952708E-1,9.890447617E0,4.089296341E0
8.419245000E-1,4.381389022E-1,1.046266174E1,4.244919777E0
8.448230500E-1,8.858546615E-2,1.061349583E1,3.878606796E0
8.464895000E-1,-4.908113480E-1,1.027591324E1,1.980004787E0
8.483328070E-1,-7.924807668E-1,1.028788471E1,7.948749661E-1
8.500877310E-1,-9.169792533E-1,1.088882923E1,5.291185975E-1
8.526790770E-1,-8.714894056E-1,1.157117653E1,8.116343617E-1
8.541835770E-1,-8.954314590E-1,1.164060879E1,1.187524080E0
8.566245770E-1,-9.169792533E-1,1.091037750E1,1.812410712E0
8.582811150E-1,-3.830722570E-1,9.751583099E0,3.069366693E0
8.606528070E-1,1.000776291E0,8.619126320E0,4.862623692E0
8.624201920E-1,2.468421936E0,7.757213593E0,6.488286495E0
8.653002810E-1,2.846705914E0,7.247248650E0,7.316680431E0
8.666176150E-1,1.750161409E0,7.357381821E0,7.491456985E0
8.688891540E-1,-2.657563984E-1,7.836222172E0,7.249642849E0
8.706221540E-1,-2.509123325E0,8.276755333E0,6.947973251E0
8.730545000E-1,-4.072536945E0,8.331821442E0,6.691793919E0
8.747241920E-1,-4.163516521E0,7.953537941E0,6.220136166E0
8.770951920E-1,-3.052607059E0,7.781155586E0,5.667075634E0
8.788061540E-1,-1.819593310E0,8.300697327E0,5.161899090E0
8.812440380E-1,-1.168370485E0,9.339780807E0,4.627991676E0
8.829402690E-1,-9.433154464E-1,1.046984386E1,3.931279182E0
8.858382040E-1,-7.637503147E-1,1.119768143E1,3.110068083E0
8.875004610E-1,6.057330370E-1,1.093671322E1,1.599326730E0
8.899141650E-1,1.513135433E0,1.051293945E1,9.576807022E-1
8.910435000E-1,3.548206806E0,9.593565941E0,-2.896983922E-1
8.939743460E-1,4.886565685E0,9.004592896E0,-1.242590666E0
8.951573460E-1,4.474762917E0,8.966285706E0,-1.620874524E0
8.980847420E-1,2.190694571E0,9.579200745E0,-1.051054597E0
8.992959610E-1,-2.626439333E0,1.083855152E1,1.187524080E0
9.021887810E-1,-4.505887508E0,1.083376312E1,2.803610086E0
9.034141540E-1,-4.134786129E0,9.732429504E0,3.974374771E0
9.062923190E-1,-1.747767210E0,7.960720539E0,4.663905144E0
9.085467310E-1,1.446097851E0,6.291962147E0,5.025429249E0
9.103377690E-1,3.833117008E0,5.305551052E0,5.035006046E0
9.115227310E-1,4.218583584E0,5.216965675E0,4.659116745E0
9.144070110E-1,2.671929121E0,6.042964935E0,4.220977783E0
9.155832690E-1,2.920926213E-1,7.718906403E0,4.192247391E0
9.185110880E-1,-1.824381709E0,9.574412346E0,4.371812344E0
9.197985000E-1,-3.064578056E0,1.088164711E1,4.450820923E0
9.224238070E-1,-3.423708439E0,1.117373943E1,4.302380562E0
9.238506150E-1,-3.232172251E0,1.076672459E1,4.149151325E0
9.267180110E-1,-2.664746523E0,1.017775154E1,3.876212597E0
9.282335000E-1,-1.944091797E0,9.770736694E0,3.205836058E0
9.301684230E-1,-1.187524080E0,9.849745750E0,2.315192938E0
9.319504230E-1,-2.801215947E-1,1.031182671E1,1.606509328E0
9.344281540E-1,7.805097699E-1,1.065419769E1,1.398213744E0
9.361201540E-1,1.845929503E0,1.036210537E1,1.838746905E0
9.385069230E-1,2.770091295E0,9.473855972E0,2.997540474E0
9.401832300E-1,3.588908434E0,8.429984093E0,4.419696331E0
9.425410380E-1,3.976768970E0,7.857769966E0,5.482721806E0
9.443011920E-1,3.136404276E0,8.073247910E0,5.865794182E0
9.471875880E-1,1.058237195E0,8.822632790E0,5.568912983E0
9.485454230E-1,-2.492363930E0,9.744400978E0,4.793191910E0
9.507663840E-1,-3.876212597E0,9.423578262E0,4.448426723E0
9.525552690E-1,-3.909731388E0,8.461109161E0,4.283226967E0
9.549379610E-1,-2.726995707E0,7.565677166E0,4.206612587E0
9.566507690E-1,-1.261744261E0,7.378929615E0,4.220977783E0
9.589918070E-1,-6.416460276E-1,8.142680168E0,4.529829502E0
9.607242300E-1,-1.197100878E0,9.277531624E0,5.094861031E0
9.631498070E-1,-2.205059767E0,1.014662647E1,5.544970989E0
9.649417300E-1,-2.822763920E0,1.059194851E1,5.719748020E0
9.677390110E-1,-2.406172752E0,1.049378586E1,5.207388878E0
9.695186150E-1,-7.134721279E-1,1.000058079E1,3.799597979E0
9.718198570E-1,1.742978811E0,9.406818390E0,1.970427990E0
9.729705380E-1,3.936067581E0,8.846575737E0,3.567360640E-1
9.758889730E-1,5.054159641E0,8.499416351E0,-4.453215301E-1
9.770871150E-1,4.793191910E0,8.722076416E0,-2.154781520E-1
9.799932030E-1,3.303998232E0,9.385271072E0,5.458779931E-1
9.811856540E-1,1.005564690E0,1.010113716E1,1.290474772E0
9.840829610E-1,-1.089361787E0,1.028070164E1,1.805228114E0
9.853521540E-1,-2.056619167E0,9.703699112E0,2.291250944E0
9.882012800E-1,-1.790862918E0,8.681375504E0,3.009511471E0
9.898928840E-1,-1.412578970E-1,7.117961884E0,3.888183594E0
9.922268070E-1,4.620809257E-1,6.768408298E0,3.936067581E0
9.933966150E-1,1.362300754E0,6.399701118E0,3.622427225E0
9.963068570E-1,1.616086125E0,6.636727333E0,3.287238836E0
9.974866540E-1,1.146822572E0,7.443572998E0,3.615244627E0
1.000398654E0,6.224924326E-2,8.439560890E0,4.611232281E0
1.001696884E0,-1.635239720E0,9.375694275E0,5.849034786E0
1.004436884E0,-4.625597477E0,1.053927612E1,6.995857239E0
1.005881846E0,-5.667075634E0,1.102769279E1,6.593631268E0
1.008617088E0,-5.159504890E0,1.112585545E1,5.269638062E0
1.010284654E0,-3.031059265E0,1.082897472E1,3.660734415E0
1.012056307E0,2.370259613E-1,1.024957752E1,2.260126352E0
1.013876423E0,3.598485231E0,9.581595421E0,1.235408068E0
1.016332077E0,5.923254967E0,9.014169693E0,5.243301988E-1
1.017976961E0,6.430825710E0,8.872911453E0,4.141969085E-1
1.020401423E0,5.413290024E0,9.191340446E0,8.236053586E-1
1.022088577E0,3.598485231E0,9.775525093E0,1.357512355E0
1.024455692E0,1.470039845E0,1.043871975E1,1.836352706E0
1.026196269E0,-6.679822803E-1,1.094629002E1,2.044648170E0
1.029080434E0,-2.449268341E0,1.120246983E1,2.173935175E0
1.030367615E0,-3.574543238E0,1.090798283E1,2.355894566E0
1.032566269E0,-3.998316765E0,9.849745750E0,2.856282711E0
1.034279000E0,-3.576937437E0,8.286332130E0,3.962403774E0
1.036821807E0,-2.260126352E0,6.665457726E0,5.465962410E0
1.038627923E0,-8.283938169E-1,5.772420406E0,7.268796444E0
1.040762192E0,-3.327940404E-1,6.035782337E0,9.071630478E0
1.042514961E0,-1.230619669E0,7.117961884E0,1.035252857E1
1.044908461E0,-3.023876667E0,8.449137688E0,1.095107841E1
1.046591346E0,-4.378994942E0,9.548076630E0,1.084573364E1
1.049494088E0,-4.089296341E0,1.009395409E1,1.005564690E1
1.051018000E0,3.208230138E-1,9.188945770E0,6.926425457E0
1.053561126E0,2.549824715E0,8.595184326E0,5.425261021E0
1.054705615E0,6.979097843E0,7.615955830E0,2.205059767E0
1.057628780E0,9.979032516E0,7.544129372E0,-7.445967197E-1
1.058798692E0,1.012029076E1,8.714894295E0,-2.667140722E0
1.061732049E0,5.355829239E0,1.131499767E1,-3.813963413E0
1.062920884E0,8.762778044E-1,1.276348972E1,-3.722983599E0
1.065805577E0,-2.578555346E0,1.336682796E1,-3.143586874E0
1.067066923E0,-3.938461781E0,1.247139645E1,-2.683900118E0
1.069938549E0,-3.189076662E0,1.058476543E1,-1.910573006E0
1.071659269E0,-8.259995580E-1,8.540117264E0,-6.751648784E-1
1.073979884E0,1.936909199E0,7.074865818E0,8.236053586E-1
1.075135577E0,3.562572241E0,6.433219910E0,2.389413357E0
1.078050665E0,3.612850428E0,6.347028732E0,3.703830004E0
1.079223807E0,2.585737944E0,7.067683220E0,5.413290024E0
1.082132961E0,9.433154464E-1,8.271966934E0,7.666234016E0
1.083335346E0,-1.209071875E0,9.095572472E0,9.648633003E0
1.086093423E0,-3.292027235E0,9.265560150E0,1.080263805E1
1.087506038E0,-4.426878929E0,9.165003777E0,1.083855152E1
1.090362395E0,-4.170699596E0,9.224859238E0,9.878476143E0
1.091956000E0,-2.561795712E0,9.416395187E0,8.149862289E0
1.093796000E0,7.900865376E-2,9.543288231E0,5.978321552E0
1.095716423E0,2.980781078E0,9.430760384E0,3.718195200E0
1.098196807E0,5.171475887E0,9.200917244E0,1.927332401E0
1.099754961E0,6.136339188E0,9.138668060E0,9.026140571E-1
1.102190423E0,5.810727596E0,9.332598686E0,2.873041928E-1
1.103742230E0,4.338293552E0,9.852140427E0,-3.040636182E-1
1.106098500E0,2.212242365E0,1.065180302E1,-1.070208192E0
1.107863192E0,-7.661445439E-2,1.180341434E1,-1.520318031E0
1.110733087E0,-2.109291792E0,1.272039318E1,-1.285686255E0
1.111978846E0,-3.550601006E0,1.256477070E1,-5.841852427E-1
1.114325000E0,-4.089296341E0,1.127908421E1,5.841852427E-1
1.116051307E0,-3.303998232E0,9.220070839E0,2.066195965E0
1.118492884E0,-5.889736414E-1,6.358999729E0,4.757278919E0
1.120200230E0,5.363011956E-1,5.698200226E0,6.955155849E0
1.122594884E0,2.777273953E-1,6.440402508E0,9.253589630E0
1.124264461E0,-1.472434044E0,8.006210327E0,1.120486355E1
1.126685846E0,-3.646369219E0,9.382876396E0,1.213381386E1
1.128386577E0,-4.378994942E0,1.012268448E1,1.203804588E1
1.131275587E0,-2.415749550E0,9.967061996E0,1.105642319E1
1.132812961E0,2.018311977E0,8.836998940E0,9.059659004E0
1.135352318E0,7.082048416E0,7.271190643E0,6.308721542E0
1.136687192E0,1.053688145E1,6.282385349E0,3.383007050E0
1.139407192E0,1.076911926E1,6.629544735E0,8.331822157E-1
1.140607769E0,7.546523571E0,8.554482460E0,-7.613561153E-1
1.143527049E0,2.360682964E0,1.131978607E1,-1.618480325E0
1.144744961E0,-2.631227732E0,1.356554699E1,-2.114080191E0
1.147631587E0,-5.559336185E0,1.414015484E1,-2.305616140E0
1.148833269E0,-5.319916248E0,1.281376743E1,-2.221819162E0
1.151735895E0,-2.252943754E0,1.056800652E1,-1.503558636E0
1.153502884E0,3.928884983E0,7.302315235E0,-2.681505978E-1
1.155779961E0,5.463568211E0,6.619967937E0,3.591302410E-2
1.156938500E0,7.003039837E0,6.105214119E0,6.536170840E-1
1.159850587E0,6.675034523E0,6.722918510E0,1.707065821E0
1.161033500E0,4.936843872E0,8.080430984E0,3.557783842E0
1.163953923E0,2.331952572E0,9.325415611E0,5.659893036E0
1.165162961E0,-5.722141862E-1,1.005804157E1,7.364564419E0
1.167999692E0,-3.064578056E0,1.021605873E1,8.298302650E0
1.169753192E0,-4.441244125E0,9.976638794E0,8.367734909E0
1.172163049E0,-3.579331636E0,9.349357605E0,7.098807812E0
1.173843076E0,-1.455674648E0,8.995016098E0,5.583278179E0
1.175649192E0,9.888052940E-1,8.865729332E0,3.885789394E0
1.177413346E0,2.693476915E0,8.870517731E0,2.317587137E0
1.179869038E0,3.165134668E0,9.040505409E0,1.400607944E0
1.181533461E0,2.568978310E0,9.346963882E0,1.204283476E0
1.183955653E0,1.333570361E0,9.674968719E0,1.455674648E0
1.185900230E0,-7.422025502E-2,1.006522369E1,1.745373011E0
1.188100000E0,-1.438915253E0,1.045787334E1,1.848323703E0
1.189814923E0,-2.521094322E0,1.073799419E1,2.161964178E0
1.192634472E0,-2.813186884E0,9.859322548E0,2.094926596E0
1.193957384E0,-2.667140722E0,8.312667847E0,1.877054095E0
1.196275115E0,-2.873042107E0,7.175422668E0,2.300827742E0
1.198125423E0,-3.311181068E0,6.426037312E0,2.841917515E0
1.200400346E0,-3.318363667E0,7.675810814E0,4.627991676E0
1.202138038E0,-3.373430252E0,9.957485199E0,7.010222435E0
1.204518538E0,-4.352658749E0,9.993397713E0,7.687781811E0
1.206404576E0,-4.702212334E0,9.215282440E0,8.566453934E0
1.208607230E0,-2.360682964E0,8.887276649E0,9.933543205E0
1.210850500E0,1.254561663E0,8.757989883E0,1.060152531E1
1.213187741E0,4.101267338E0,7.951143742E0,9.382876396E0
1.214799769E0,7.094019413E0,6.555324078E0,4.587290287E0
1.217267241E0,7.685387611E0,7.158663273E0,3.785232782E0
1.218451000E0,7.587224960E0,9.358934402E0,3.524264812E0
1.221331500E0,4.565742493E0,1.079784966E1,2.540247917E0
1.222563384E0,1.695094824E0,1.165497398E1,2.039859772E0
1.225439010E0,-2.346317619E-1,1.213142014E1,1.678335428E0
1.226650192E0,-5.985504389E-1,1.193748951E1,1.254561663E0
1.229539500E0,5.817909837E-1,1.166455078E1,1.675941229E0
1.230768076E0,2.846705914E0,1.027351952E1,1.173158884E0
1.233646087E0,5.793968201E0,8.793902397E0,2.825157940E-1
1.235446807E0,9.105149269E0,8.382100105E0,-7.086837292E-1
1.237684625E0,1.184890461E1,9.193734169E0,-1.601720929E0
1.238838653E0,1.285925770E1,1.020648193E1,-2.413355350E0
1.241752933E0,1.187763500E1,1.059673691E1,-3.052607059E0
1.242945499E0,8.911218643E0,1.061589050E1,-2.865859509E0
1.245823702E0,4.268861771E0,1.098938560E1,-1.687912226E0
1.246999115E0,-5.961562395E-1,1.192312431E1,-3.711012602E-1
1.249702153E0,-4.426878929E0,1.264138508E1,-8.379705995E-2
1.251093769E0,-6.538564682E0,1.271560478E1,-1.987187415E-1
1.253997202E0,-6.435614109E0,1.204522896E1,4.309563041E-1
1.255564230E0,-4.295197964E0,1.064222622E1,2.252943754E0
1.257460115E0,-1.434126854E0,8.705317497E0,5.006275654E0
1.259240346E0,8.906430602E-1,6.567295074E0,7.891288757E0
1.261692269E0,2.240972757E0,4.580107689E0,1.026154804E1
1.263323961E0,2.597708941E0,3.615244627E0,1.237084007E1
1.265751153E0,2.030282974E0,4.333505154E0,1.472194672E1
1.267513499E0,3.327940404E-1,6.184223175E0,1.669716263E1
1.269809346E0,-2.920926094E0,8.135497093E0,1.786553383E1
1.271556038E0,-6.651092529E0,8.803479195E0,1.772666931E1
1.274481548E0,-8.293514252E0,7.718906403E0,1.612015915E1
1.275748346E0,-4.132391930E0,5.102043629E0,1.201171017E1
1.277951538E0,1.053448796E0,4.685452938E0,8.621520042E0
1.279649846E0,5.078101635E0,6.095637321E0,5.111620426E0
1.282072615E0,6.045359135E0,9.155426979E0,1.850717902E0
1.283768923E0,3.804386616E0,1.238281155E1,-3.567360640E-1
1.286186461E0,5.674257874E-1,1.297896767E1,-3.033453465E0
1.287894499E0,-1.259350061E0,1.397974396E1,-4.438849926E0
1.290284807E0,2.442085743E-1,1.663491249E1,-3.895366192E0
1.291981384E0,3.811569214E0,1.409705925E1,-8.087613106E0
1.294898741E0,5.796362400E0,1.049618053E1,-1.185848141E1
1.296427653E0,6.768408298E0,1.071644688E1,-1.014662647E1
1.298968318E0,7.158663273E0,1.234929276E1,-7.196970463E0
1.300106153E0,4.053383350E0,1.271321106E1,-4.434061527E0
1.303037741E0,-7.158663273E-1,1.003649330E1,-3.196259260E0
1.304215269E0,-1.685518026E0,8.580819130E0,3.782838583E-1
1.307142587E0,1.115697980E0,8.564059258E0,6.689399719E0
1.308301499E0,2.997540474E0,6.713341713E0,1.201889229E1
1.311210999E0,2.425326347E0,4.122815132E0,1.620635223E1
1.312431615E0,1.273715258E0,2.688688517E0,1.930923653E1
1.315351510E0,1.580173075E-1,2.904166698E0,2.148077774E1
1.317054346E0,-2.418143749E-1,3.450044632E0,2.112404251E1
1.319394471E0,1.048660398E0,3.404554844E0,1.980004883E1
1.320625076E0,5.688623428E0,3.167528868E0,1.595017147E1
1.323463971E0,9.583989143E0,2.964021683E0,1.125514221E1
1.324634692E0,9.397241592E0,3.876212597E0,6.811503887E0
1.327568779E0,5.018246651E0,6.512228489E0,2.916137695E0
1.328769499E0,-1.680729628E0,1.046745014E1,-1.675941199E-1
1.331464538E0,-8.080430984E0,1.447534370E1,-2.463633537E0
1.332908384E0,-1.167173290E1,1.761893082E1,-3.866635799E0
1.335777125E0,-1.082179165E1,1.848802567E1,-4.656722069E0
1.337456115E0,-7.072471619E0,1.523670006E1,-5.006275654E0
1.339248384E0,-9.337386489E-1,1.025197124E1,-5.181052685E0
1.341036999E0,6.715735912E0,6.189011574E0,-5.190629482E0
1.343498846E0,1.313219643E1,5.391742229E0,-4.541800499E0
1.345149115E0,1.547133160E1,7.627926826E0,-3.265691042E0
1.347560038E0,1.317529202E1,1.054645824E1,-1.944091797E0
1.349227346E0,7.692570210E0,1.174834728E1,-9.097966552E-1
1.351595615E0,1.280897856E0,1.144428444E1,4.812345505E-1
1.353374615E0,-3.960009575E0,1.159272480E1,2.863465309E0
1.356257240E0,-6.943184853E0,1.274433517E1,5.228936672E0
1.357494384E0,-7.934384346E0,1.318247414E1,5.645527840E0
1.359849653E0,-7.692570210E0,1.132696819E1,4.098873138E0
1.361575499E0,-5.983109951E0,7.833827972E0,3.069366693E0
1.363996538E0,-2.506729126E0,5.193023682E0,4.532223701E0
1.365809461E0,9.911994934E-1,5.073313236E0,8.125920296E0
1.368066076E0,1.920149803E0,6.212953568E0,1.152808094E1
1.369871730E0,7.182605099E-3,6.878541470E0,1.330457878E1
1.372216115E0,-3.002328873E0,7.022193432E0,1.507149982E1
1.373905807E0,-5.200206280E0,6.483498096E0,1.791581154E1
1.376800510E0,-5.566518784E0,5.274426460E0,2.086307335E1
1.378532999E0,-2.422932148E0,3.059789658E0,2.027888870E1
1.380876163E0,-6.679822803E-1,2.770091295E0,1.824621201E1
1.382016961E0,2.715024710E0,3.349488258E0,1.230619717E1
1.384945663E0,5.556941986E0,6.016628742E0,1.687912226E0
1.386234730E0,5.669469833E0,9.035717010E0,-2.913743496E0
1.389050202E0,3.811569214E0,1.223676491E1,-4.407725334E0
1.390241499E0,4.261679053E-1,1.367089176E1,-5.619191170E0
1.393154856E0,-2.276885748E0,1.318486881E1,-8.568847656E0
1.394376192E0,-1.833958507E0,1.283770943E1,-1.174834728E1
1.397259663E0,1.807622313E0,1.415212631E1,-1.319683933E1
1.399038115E0,4.819528103E0,1.541147614E1,-1.292390060E1
1.401306509E0,4.307168961E0,1.442506504E1,-1.165257931E1
1.402664653E0,2.485181332E0,1.276109505E1,-9.471462250E0
1.405376317E0,1.886630893E0,1.284489250E1,-6.004657745E0
1.406704884E0,2.272097349E0,1.415930843E1,-2.487575531E0
1.409454807E0,2.650381327E0,1.412100124E1,-2.178723514E-1
1.410719999E0,3.519476414E0,1.211944866E1,2.030282974E0
1.413347461E0,5.516240597E0,8.571242332E0,4.637568474E0
1.414771999E0,7.359776020E0,4.309563160E0,6.454767704E0
1.417688471E0,6.952761650E0,2.188300371E0,8.104372978E0
1.419446961E0,4.070143029E-2,7.242460251E0,1.379539013E1
1.421162846E0,-3.495534420E0,9.703699112E0,1.618240929E1
1.422953422E0,-1.024718285E1,1.131499767E1,1.926374626E1
1.425411922E0,-1.365652657E1,7.264008045E0,1.989102745E1
1.427052807E0,-1.114022064E1,1.443703651E0,2.041296387E1
1.429467115E0,-3.610456228E0,-5.817909837E-1,2.243127632E1
1.431170076E0,5.011064053E0,1.663970232E0,2.282153130E1
1.433522307E0,9.509769440E0,4.711789131E0,1.747288322E1
1.435369192E0,4.005499363E0,5.968744755E0,3.462015629E0
1.438155279E0,-1.369483352E0,6.749254704E0,-5.722141862E-1
1.439419884E0,-3.078943491E0,9.533711433E0,1.414973259E0
1.441723461E0,-2.585737944E0,1.246900272E1,3.045424461E0
1.443445730E0,-3.349488258E0,1.380736160E1,-2.944868207E-1
1.445899730E0,-5.398924828E0,1.418564510E1,-6.162675381E0
1.447546922E0,-5.937620163E0,1.489193439E1,-8.746018410E0
1.449926922E0,-3.864241600E0,1.597171974E1,-5.844246387E0
1.451640922E0,-4.716577232E-1,1.603157425E1,-1.735796213E0
1.454089384E0,2.671929121E0,1.391031170E1,-1.276109457E0
1.455783384E0,6.701370716E0,9.440337181E0,-5.760449409E0
1.458670240E0,1.317050362E1,5.030217648E0,-1.160709000E1
1.460267115E0,2.008495712E1,3.445256233E0,-1.406354046E1
1.462750932E0,2.206735802E1,5.947196960E0,-1.120965195E1
1.463900538E0,1.459984207E1,1.135569859E1,-5.030217648E0
1.466809499E0,-8.906430602E-1,1.531091976E1,-5.793967843E-1
1.468013769E0,-1.664927864E1,1.561019516E1,2.729389966E-1
1.470924432E0,-2.474407387E1,1.413536644E1,1.702277422E0
1.472150499E0,-2.202186775E1,1.305318737E1,5.724536419E0
1.475028894E0,-1.148259163E1,1.261026001E1,1.088882923E1
1.476249961E0,-1.029506698E-1,1.050575733E1,1.331655025E1
1.479133432E0,6.576871872E0,4.898536682E0,1.155202293E1
1.480820999E0,1.038604736E1,-3.775655985E0,7.896077156E0
1.483170538E0,1.125274754E1,-4.015076160E0,8.753201485E0
1.484341730E0,1.188242340E1,3.591302633E-1,1.380736160E1
1.487240778E0,8.817844391E0,7.508216381E0,1.899080849E1
1.488444807E0,1.256955862E0,1.173398209E1,1.940021706E1
1.491344086E0,-1.026394272E1,1.167412758E1,1.436760426E1
1.492603499E0,-1.256955910E1,1.193988419E1,1.313459015E1
1.495225961E0,-1.069968700E1,1.257195282E1,1.232774448E1
1.496659076E0,-6.129156113E0,9.684545517E0,6.679822922E0
1.499551240E0,1.386242747E0,3.825934410E0,-4.060565948E0
1.501736961E0,1.520078659E1,1.640028119E0,-1.786074448E1
1.502972884E0,1.775539970E1,4.249708176E0,-1.918713188E1
1.504810576E0,1.528697777E1,1.229422569E1,-1.701080322E1
1.507154615E0,3.964797974E0,1.814565468E1,-1.339076996E1
1.508893999E0,-9.931148529E0,1.872983932E1,-1.202368069E1
1.511721999E0,-1.920149803E1,1.732923126E1,-1.035252857E1
1.512981307E0,-2.014002419E1,1.742260551E1,-5.829881191E0
1.515329538E0,-1.375708294E1,1.861252403E1,-3.758896589E-1
1.517087422E0,-5.073313236E0,1.670673943E1,2.375048161E0
1.519994971E0,2.284068346E0,8.386888504E0,1.268926859E0
1.521394961E0,8.978256226E0,-8.738836050E-1,2.082955539E-1
1.523583345E0,1.521275806E1,-3.512293816E0,4.213795185E0
1.525308653E0,1.705629349E1,1.115697980E0,1.251928043E1
1.527818422E0,1.144907284E1,6.722918510E0,1.897644234E1
1.529485807E0,1.637633920E0,9.026140213E0,2.024536896E1
1.531762076E0,-6.947973251E0,1.063264942E1,2.097799492E1
1.533540153E0,-1.277306652E1,1.250970364E1,2.408327484E1
1.535935192E0,-1.564850235E1,1.112585545E1,2.510799408E1
1.537699269E0,-1.406593513E1,5.049371243E0,1.981920242E1
1.540529240E0,-2.106897533E-1,-1.599326730E0,5.559336185E0
1.542043538E0,1.133654499E1,2.489969730E0,-2.896984100E0
1.544596663E0,1.510741234E1,9.631873131E0,-9.378087997E0
1.545759307E0,8.973467827E0,1.264856720E1,-1.450407410E1
1.548665047E0,-4.955997467E-1,1.221521664E1,-1.575863552E1
1.549842538E0,-7.711723804E0,1.380975533E1,-1.141555405E1
1.552768817E0,-1.247379112E1,1.814565468E1,-5.475539207E0
1.553954576E0,-1.534443855E1,2.168428421E1,-3.531447411E0
1.556873817E0,-1.578257751E1,1.974976921E1,-6.773196697E0
1.558139345E0,-1.194227791E1,1.248336792E1,-1.057997704E1
1.560978278E0,-3.572149038E0,6.100425720E0,-8.410830498E0
1.562673730E0,6.179434776E0,4.438849926E0,-1.369483352E0
1.564995768E0,1.168849277E1,5.597643375E0,5.061342239E0
1.566154807E0,1.006761837E1,6.677428722E0,8.140285492E0
1.569087932E0,5.104437828E0,7.354987621E0,9.421183586E0
1.570351499E0,1.110909581E0,9.265560150E0,1.310585976E1
1.573191509E0,-2.145204782E0,9.713275909E0,1.893334770E1
1.574414730E0,-5.054159641E0,5.506663799E0,2.127487564E1
1.577137884E0,-5.894524574E0,-1.819593310E-1,1.841141129E1
1.578503692E0,-3.332728863E0,-1.192312479E0,1.246660805E1
1.581399893E0,-2.130839527E-1,4.941632271E0,5.892130375E0
1.583004115E0,-5.125985622E0,1.389115810E1,-4.438849926E0
1.584848922E0,-8.336610794E0,1.350090313E1,-7.769184589E0
1.586717384E0,-1.159990692E1,1.049857426E1,-1.007480049E1
1.589164730E0,-9.873687744E0,1.072602367E1,-4.539406300E0
1.590768961E0,-8.116343498E0,1.440351772E1,1.821987510E0
1.593180922E0,-9.734824181E0,1.707784081E1,1.941697598E0
1.594871076E0,-1.000536919E1,1.191115379E1,-8.386888504E0
1.597231345E0,-4.168305397E0,7.802703381E0,-1.015380955E1
1.598975192E0,2.846705914E0,7.132327080E0,-4.721365929E0
1.601882739E0,6.785167694E0,8.281543732E0,8.690952063E-1
1.603149345E0,6.892906666E0,9.583989143E0,3.074155092E0
1.605477884E0,5.671864033E0,1.029985619E1,2.097320795E0
1.607214461E0,4.584896088E0,1.089361763E1,1.891419291E0
1.609836307E0,2.726995707E0,9.090784073E0,4.158728123E0
1.611335692E0,1.335964561E0,4.390965939E0,6.663063526E0
1.613696653E0,2.188300371E0,1.656787634E0,8.360552788E0
1.615441884E0,3.325546265E0,4.623203278E0,8.030152321E0
1.617840192E0,4.668693244E-1,1.088404083E1,3.160346270E0
1.619540961E0,-7.721300602E0,1.492545319E1,-4.517858505E0
1.622427316E0,-1.535880375E1,1.393185997E1,-9.327810287E0
1.623960845E0,-1.551203251E1,1.121204662E1,-5.825092793E0
1.626502855E0,-9.540893555E0,1.106121159E1,4.180276394E0
1.627912076E0,-4.967968464E0,1.164300251E1,1.105163479E1
1.630561884E0,-5.576095581E0,9.205705643E0,8.463502884E0
1.631796807E0,-6.454767704E0,5.449203014E0,1.479616642E0
1.634676932E0,-2.229001760E0,5.221754074E0,3.303998411E-1
1.636000961E0,4.024652958E0,7.536946774E0,5.580883980E0
1.638764461E0,6.490680695E0,8.197746277E0,9.210494041E0
1.640090538E0,5.219359875E0,7.656657219E0,7.675810814E0
1.642885778E0,3.780444384E0,1.229662037E1,3.548206806E0
1.644660307E0,2.873042107E0,1.360385418E1,8.906430602E-1
1.646922153E0,1.920149803E0,7.960720539E0,-2.281674147E0
1.648092538E0,4.448426723E0,2.494758129E0,-1.960851192E0
1.651002662E0,9.967061996E0,4.122815132E0,1.470039845E0
1.652191422E0,1.243787766E1,1.083615685E1,7.829039693E-1
1.655104845E0,6.217741966E0,1.472194672E1,-8.147468567E0
1.656376422E0,-5.561730385E0,1.274433517E1,-1.919670868E1
1.658994268E0,-1.263420200E1,1.174116516E1,-1.985032654E1
1.660420576E0,-1.080024433E1,1.638591576E1,-7.927201748E0
1.663317855E0,-6.615179062E0,2.072899818E1,3.730166197E0
1.664926345E0,-6.811503887E0,1.673307610E1,4.347870350E0
1.666768730E0,-6.694188118E0,6.821080685E0,-2.870647907E0
1.668561615E0,6.272808313E-1,2.813186884E0,-3.782838583E0
1.671033884E0,1.183453941E1,6.203376770E0,4.568136692E0
1.672769807E0,1.623508263E1,8.125920296E0,1.150413895E1
1.675078191E0,1.093910789E1,5.932831764E0,1.176271248E1
1.676775422E0,2.964021683E0,6.021417141E0,1.042914295E1
1.679152499E0,-1.850717902E0,1.141555405E1,1.272039318E1
1.680892576E0,-4.539406300E0,1.286643982E1,1.428859615E1
1.683791124E0,-4.290409565E0,5.238513470E0,1.107318306E1
1.685086922E0,2.217030764E0,-1.989581585E0,8.429984093E0
1.687427230E0,1.151611042E1,3.615244627E-1,9.698910713E0
1.689218922E0,1.391031170E1,7.517793179E0,7.764396191E0
1.691546230E0,4.345476151E0,9.641449928E0,-2.164358377E0
1.693227538E0,-1.489193439E1,8.798690796E0,-1.276588345E1
1.695610230E0,-1.960372353E1,1.440112305E1,-5.504269600E0
1.697339268E0,-2.003228569E1,2.092771721E1,4.086902142E0
1.699744076E0,-2.030043602E1,1.928289986E1,3.986345768E0
1.701448499E0,-1.746570206E1,1.046505547E1,-4.161122322E0
1.704350624E0,-7.249642849E0,4.994304657E0,-7.778761387E0
1.705951999E0,6.888118267E0,6.258443356E0,-1.958456993E0
1.708431047E0,1.566765594E1,8.643068314E0,5.437232018E0
1.709727422E0,1.515769100E1,8.243236542E0,7.608773232E0
1.712490076E0,9.866505623E0,9.114726067E0,6.866570473E0
1.713806153E0,4.285621166E0,1.298614979E1,7.905653954E0
1.716605739E0,-3.615244627E-1,1.199973869E1,7.754819393E0
1.717864268E0,-1.568202138E0,5.355829239E0,5.351040840E0
1.720699153E0,3.078943491E0,7.972691655E-1,4.405331135E0
1.721934615E0,1.015620327E1,3.363853455E0,5.092466831E0
1.724814431E0,1.042195988E1,8.853757858E0,2.497152328E0
1.726506153E0,-5.030217648E0,9.591172218E0,-1.059673691E1
1.728843807E0,-1.009634876E1,9.598354340E0,-1.308910084E1
1.730011999E0,-1.555991650E1,1.265096188E1,-9.753977776E0
1.732922970E0,-1.695094872E1,1.794693565E1,-5.363011956E-1
1.734119422E0,-1.915122032E1,1.887588692E1,4.249708176E0
1.737024230E0,-2.079603577E1,1.305797577E1,2.801215947E-1
1.738218384E0,-1.628296661E1,8.463502884E0,-4.271255970E0
1.740995922E0,-5.363011837E0,9.124302864E0,-2.042253971E0
1.742386422E0,5.422866821E0,9.244012833E0,2.715024710E0
1.745235277E0,1.103008747E1,6.198588371E0,5.473145008E0
1.746784576E0,1.364216137E1,6.042964935E0,1.027830791E1
1.748688345E0,1.279940224E1,9.560047150E0,1.346738434E1
1.750483576E0,7.970297337E0,6.722918510E0,1.104445267E1
1.753010153E0,3.679888010E0,-6.009446383E-1,5.940014362E0
1.754592422E0,4.592078686E0,-6.727706790E-1,6.976703644E0
1.757037115E0,6.387730122E0,8.523358345E0,1.273236465E1
1.758835884E0,9.768342972E-1,1.441788292E1,1.110670185E1
1.761083384E0,-1.055364132E1,1.067335129E1,-1.271321058E0
1.762846191E0,-1.892855835E1,6.710947514E0,-1.084094524E1
1.765721662E0,-1.878011894E1,1.007001209E1,-7.321468830E0
1.767030576E0,-1.437957573E1,1.702038002E1,2.272097349E0
1.769243230E0,-1.241633034E1,1.697488976E1,4.517858505E0
1.770959922E0,-1.205959415E1,9.083600998E0,-3.083731890E0
1.773412807E0,-8.628703117E0,5.027823448E0,-8.133103371E0
1.775018961E0,-1.213860273E0,8.063671112E0,-4.395754337E0
1.777319845E0,5.487510204E0,1.163582039E1,1.309628367E0
1.779019038E0,7.881711960E0,1.158075333E1,3.634398222E0
1.781444807E0,8.293514252E0,1.090798283E1,4.170699596E0
1.783155538E0,9.083600998E0,1.218648624E1,5.401319027E0
1.786034777E0,8.525752068E0,9.847352028E0,4.778826714E0
1.787636230E0,8.164227486E0,2.130839586E0,1.225831270E0
1.790101508E0,1.088643551E1,-1.271321058E0,5.027823448E-1
1.791390499E0,1.337640476E1,5.949591160E0,5.118803024E0
1.794170623E0,7.477091789E0,1.423352909E1,5.987898350E0
1.795380076E0,-6.986280441E0,1.386242771E1,-2.116474390E0
1.798275585E0,-2.038662720E1,1.080503273E1,-8.968679428E0
1.799513922E0,-2.481829453E1,1.181059742E1,-5.073313236E0
1.802380546E0,-2.146641159E1,1.575624180E1,4.829104900E0
1.803762845E0,-1.706587029E1,1.594298935E1,1.035252857E1
1.806485316E0,-1.037647057E1,5.054159641E0,2.844311714E0
1.808285422E0,-1.288080573E0,3.311181068E0,1.106121182E0
1.810523123E0,9.203310966E0,5.841852188E0,4.843470097E0
1.811946153E0,1.438436413E1,7.292738438E0,7.855375767E0
1.814593546E0,1.299333286E1,7.417236805E0,8.690952301E0
1.815879614E0,9.315838814E0,9.363722801E0,8.633491516E0
1.818698892E0,5.549759388E0,1.226310158E1,8.001421928E0
1.819937153E0,6.009446383E-1,1.059673691E1,5.389348030E0
1.822744730E0,-2.063801765E0,4.201824188E0,1.012747288E0
1.824086114E0,1.082179189E0,2.140416384E0,1.819593310E-1
1.826909508E0,5.707777023E0,8.207323074E0,2.954444885E0
1.828609230E0,3.835511208E0,1.260786629E1,5.961562395E-1
1.830388576E0,-4.972756863E0,1.048899746E1,-8.161833763E0
1.832212038E0,-1.328781986E1,8.774748802E0,-1.285446930E1
1.834630807E0,-1.640506935E1,1.215057373E1,-7.055712223E0
1.836259153E0,-1.572751141E1,1.723106956E1,2.437297344E0
1.838705230E0,-1.495418358E1,1.660378838E1,5.590460777E0
1.840378768E0,-1.278743172E1,8.896853447E0,9.074024558E-1
1.842774268E0,-5.566518784E0,3.703830004E0,-2.008735180E0
1.844544730E0,5.300762653E0,4.632780075E0,2.006340981E0
1.847394392E0,1.279222012E1,6.007051945E0,6.323086739E0
1.848676345E0,1.284728622E1,5.623979568E0,7.208941460E0
1.851002730E0,7.666234016E0,6.931213856E0,7.278373241E0
1.852743307E0,1.819593310E0,1.135569859E1,8.860940933E0
1.855190038E0,-3.208230257E0,1.296460247E1,9.267954826E0
1.856884076E0,-6.090848923E0,7.742848396E0,6.167463779E0
1.859348384E0,2.992752194E-1,1.122880578E0,2.911349297E0
1.861115538E0,7.199364662E0,6.088454723E0,4.697423935E0
1.863355730E0,6.528987885E0,1.067813969E1,2.061407566E0
1.865072961E0,-2.557007313E0,9.562441826E0,-6.385335922E0
1.867942661E0,-1.234689808E1,8.772355080E0,-1.066377449E1
1.869505268E0,-1.726458931E1,1.212663174E1,-5.348646641E0
1.872020161E0,-1.790862846E1,1.666603851E1,3.100491285E0
1.873207422E0,-1.759977722E1,1.669237518E1,5.784391403E0
1.876090123E0,-1.573708820E1,1.035971069E1,7.086837292E-1
1.877283307E0,-8.942343712E0,4.879383087E0,-3.770867586E0
1.880195277E0,1.769315004E0,4.762067318E0,-1.302445769E0
1.881424038E0,1.003409958E1,6.907271862E0,4.180276394E0
1.884298922E0,1.162863731E1,8.511386871E0,7.690176010E0
1.885528422E0,8.365341187E0,1.009874249E1,8.286332130E0
1.888404854E0,4.374206543E0,1.261265469E1,8.008605003E0
1.890228037E0,-1.532289088E-1,1.059194851E1,7.213729858E0
1.892451469E0,-6.416460276E-1,7.551311970E0,6.646304131E0
1.893771961E0,1.505952835E0,1.817199111E0,5.755661011E0
1.896521084E0,6.110002518E0,2.248155355E0,6.320692539E0
1.898008422E0,6.521805286E0,7.872135162E0,5.525817394E0
1.900625738E0,-1.496376038E0,1.046984386E1,-8.164227605E-1
1.901932268E0,-1.234450436E1,9.581595421E0,-8.056488991E0
1.904514268E0,-1.821269226E1,1.122641182E1,-6.746860504E0
1.906304768E0,-1.844014168E1,1.536598682E1,1.376665950E0
1.908834431E0,-1.641464615E1,1.693897629E1,6.715735912E0
1.910557807E0,-1.241393566E1,9.643844604E0,9.097966552E-1
1.912257537E0,-5.248090267E0,5.403713226E0,-3.394978046E0
1.914081768E0,4.833893299E0,5.956773758E0,-1.594538331E0
1.916557499E0,1.213381386E1,7.424419403E0,2.042253971E0
1.918174961E0,1.316810894E1,7.931990147E0,3.699041605E0
1.920582807E0,9.430760384E0,9.524134636E0,4.546588898E0
1.922369499E0,5.193023682E0,1.292150688E1,5.288791656E0
1.924658576E0,1.915361404E0,1.448492050E1,5.324704647E0
1.926413114E0,-6.727706790E-1,9.921571732E0,3.653551817E0
1.929294046E0,1.316810995E-1,2.746149302E0,1.742978811E0
1.930573307E0,4.857835293E0,1.917755604E0,2.983175278E0
1.932897653E0,7.580042362E0,7.967903137E0,4.544194698E0
1.934647999E0,1.699883223E0,1.188002872E1,2.968810201E-1
1.937061461E0,-9.734824181E0,1.105402946E1,-7.084442616E0
1.938798499E0,-1.793975258E1,1.096065521E1,-7.778761387E0
1.941248268E0,-1.928529549E1,1.370441055E1,-2.801215947E-1
1.942911422E0,-1.654393387E1,1.627817726E1,7.496245384E0
1.945433576E0,-1.332612705E1,1.402762794E1,7.615955830E0
1.947012499E0,-9.315838814E0,7.278373241E0,1.410184860E0
1.949850507E0,-1.783680320E0,2.229001760E0,-2.760514498E0
1.951459884E0,1.015859795E1,1.094150186E0,-5.913678408E-1
1.953929123E0,1.085291672E1,2.509123325E0,1.146822572E0
1.955059730E0,4.984727859E0,7.831433773E0,5.219359875E0
1.957982922E0,-6.062118530E0,1.324472427E1,6.957550049E0
1.959175345E0,-1.561498356E1,1.620874596E1,5.571307182E0
1.962103738E0,-2.109291649E1,1.232056236E1,4.505887508E0
1.963282153E0,-1.612015915E1,5.152322292E0,4.987122059E0
1.966186384E0,-4.838681698E0,8.571242094E-1,5.884947777E0
1.967409614E0,6.198588371E0,3.141192675E0,5.003881454E0
1.970313584E0,8.259995461E0,8.520963669E0,-9.576806799E-3
1.972072922E0,1.312022567E0,1.138442898E1,-7.443572998E0
1.974335845E0,-5.944802761E0,1.274912453E1,-9.749189377E0
1.975510076E0,-7.529764175E0,1.443943024E1,-3.387795448E0
1.978422546E0,-4.967968464E0,1.542105293E1,5.066130638E0
1.979591384E0,-2.403778553E0,1.291193008E1,7.019799232E0
1.982517537E0,-5.147533417E-1,7.005434036E0,1.063025594E0
1.983713653E0,3.222595453E0,3.330334663E0,-4.884171486E0
1.986387576E0,7.371747017E0,4.553771496E0,-4.654327869E0
1.987852576E0,7.098807812E0,7.096413612E0,-8.236053586E-1
1.990734161E0,9.385270476E-1,9.469067574E0,2.406172752E0
1.992838614E0,-1.124556541E1,1.447773743E1,5.549759388E0
1.994181960E0,-1.355836391E1,1.573708820E1,5.734113216E0
1.995957730E0,-1.460702419E1,1.561977196E1,5.161899090E0
1.998365807E0,-1.217930412E1,1.021845245E1,4.280832767E0
2.000057960E0,-5.659893036E0,2.061407566E0,3.727771997E0
2.002547922E0,3.739742994E0,-1.431732655E0,5.058948040E0
2.004149499E0,1.036928749E1,1.817199111E0,6.153098583E0
2.006520884E0,6.976703644E0,6.387730122E0,2.908955097E0
2.008263730E0,-4.630385876E0,8.530540466E0,-2.590526342E0
2.011184084E0,-1.491827106E1,1.080024433E1,-2.726995707E0
2.012429730E0,-1.784159088E1,1.570117474E1,8.892065048E0
2.014784422E0,-1.532528496E1,1.533246803E1,1.316810894E1
2.016495768E0,-1.197819138E1,1.033816338E1,9.507374763E0
2.019036537E0,-5.552153587E0,4.022258759E0,1.707065821E0
2.020614076E0,4.118026733E0,2.063801765E0,-2.679111719E0
2.023105807E0,1.201889229E1,4.374206543E0,-2.420537949E0
2.024853653E0,1.282095051E1,8.226476669E0,-1.074996591E0
2.027130768E0,6.586448669E0,1.217930412E1,-2.944868207E-1
2.028856037E0,-1.798045516E0,1.547612000E1,-7.445967197E-1
2.031722007E0,-7.505822182E0,1.716642570E1,-1.553836942E0
2.033244037E0,-9.624691010E0,1.472673512E1,-2.118868589E0
2.035789853E0,-7.536946774E0,8.001421928E0,-2.683900118E0
2.036935114E0,-9.074024558E-1,2.286462545E0,-2.717418909E0
2.039858276E0,6.564900875E0,2.489969730E0,-2.499546528E0
2.041087153E0,7.433996201E0,6.904877663E0,-3.995922565E0
2.043962353E0,-1.003170490E0,1.071644688E1,-6.588842869E0
2.045179037E0,-1.180341434E1,1.256237602E1,-6.399701118E0
2.048067161E0,-1.711135864E1,1.367568016E1,-5.865794420E-1
2.049303537E0,-1.587595177E1,1.385524559E1,7.247248650E0
2.052172007E0,-1.132936287E1,1.209311295E1,1.129823780E1
2.053885691E0,-2.564189911E0,5.920860767E0,7.838616371E0
2.056215238E0,1.055842996E0,3.715801001E0,5.647922039E0
2.057481845E0,8.554482460E0,1.228225470E0,2.975992680E0
2.060284815E0,1.275630665E1,2.039859772E0,3.552995205E0
2.061520191E0,1.082179165E1,5.937620163E0,6.150704384E0
2.064389161E0,4.165910721E0,1.154723454E1,8.640673637E0
2.065585884E0,-2.899378300E0,1.640746498E1,9.114726067E0
2.068273345E0,-8.070854187E0,1.659900093E1,6.169857979E0
2.069754422E0,-6.842628479E0,9.761159897E0,3.203441858E0
2.072597815E0,-9.361328483E-1,2.643198729E0,1.860294700E0
2.074216345E0,7.163451672E0,1.283292055E0,1.910573006E0
2.076020807E0,1.121444035E1,5.882553577E0,-9.576806426E-2
2.077826576E0,5.398924828E0,1.093671322E1,-6.102819920E0
2.080286922E0,-6.897695065E0,1.230140877E1,-1.258152962E1
2.081926345E0,-1.565089607E1,1.262462521E1,-1.201889229E1
2.084360460E0,-1.659660530E1,1.499967384E1,-3.385401249E0
2.086032730E0,-1.383848572E1,1.685757446E1,4.924872875E0
2.088432576E0,-1.173637676E1,1.443943024E1,5.372588634E0
2.090204422E0,-8.805873871E0,8.389283180E0,-3.663128614E-1
2.093064007E0,-1.781286120E0,3.919308186E0,-4.034229755E0
2.094297653E0,6.648698330E0,3.825934410E0,-7.829039693E-1
2.096613268E0,1.012747288E1,5.643133640E0,5.173870087E0
2.098386999E0,6.696582317E0,7.766790390E0,9.155426979E0
2.100809537E0,-1.436521020E-2,1.077869606E1,1.074757099E1
2.102501768E0,-5.185841084E0,1.408987713E1,1.097741508E1
2.104826076E0,-7.548917770E0,1.312740803E1,1.009156036E1
2.106591768E0,-6.332663536E0,5.592854977E0,7.991845131E0
2.108950230E0,-1.675941236E-2,-1.369483352E0,7.690176010E0
2.110565768E0,8.274360657E0,-1.228225470E0,9.021351814E0
2.113501737E0,1.055364132E1,4.436455727E0,6.694188118E0
2.115002537E0,-5.303156853E0,9.933543205E0,-6.993463039E0
2.117578430E0,-1.209790134E1,1.035013390E1,-1.091516590E1
2.118701230E0,-2.008495712E1,1.215057373E1,-1.080263805E1
2.121648545E0,-1.964682007E1,1.586637497E1,-2.159569979E0
2.122804807E0,-1.497333717E1,1.620874596E1,4.797980309E0
2.125752545E0,-1.187524033E1,1.008198357E1,-1.204283476E0
2.126906768E0,-4.888959885E0,5.231330872E0,-7.747636795E0
2.129811960E0,4.757278919E0,5.142745018E0,-7.448361397E0
2.131032230E0,1.047942066E1,7.264008045E0,-2.298433542E0
2.133961391E0,8.288725853E0,9.481039047E0,2.990357876E0
2.135741153E0,1.247379065E0,1.193270111E1,6.574477673E0
2.137977845E0,-5.346252441E0,1.544260120E1,9.028534889E0
2.139197960E0,-9.196128845E0,1.571314621E1,9.856928825E0
2.142078084E0,-9.040505409E0,8.154650688E0,7.486668587E0
2.143231383E0,-2.664746523E0,-7.876923680E-1,6.363788128E0
2.146163114E0,7.841010571E0,-2.401384354E0,9.344569206E0
2.147337076E0,1.368525696E1,3.059789658E0,1.131739140E1
2.150062383E0,6.804321289E0,8.111555099E0,6.469132900E0
2.151503653E0,-8.444349289E0,8.961497307E0,-3.150769472E0
2.154391507E0,-1.974498177E1,1.066137981E1,-6.114790916E0
2.155988730E0,-2.012805367E1,1.829648972E1,5.906495571E0
2.157831807E0,-1.841859436E1,1.933078384E1,9.186552048E0
2.159624383E0,-1.547372532E1,1.525824738E1,7.872135162E0
2.162083614E0,-1.062307262E1,7.117961884E0,-6.177040339E-1
2.163751768E0,-1.242590666E0,3.438073635E0,-6.323086739E0
2.166158730E0,8.504204750E0,5.032611847E0,-5.602431774E0
2.167891922E0,1.142513084E1,8.006210327E0,-1.972822189E0
2.170287922E0,6.821080685E0,1.056082344E1,1.134851575E0
2.172033883E0,5.985504389E-2,1.407790565E1,3.471592426E0
2.174859622E0,-7.496245384E0,1.644577217E1,5.025429249E0
2.176181691E0,-8.815450668E0,8.549694061E0,1.774103403E0
2.178444076E0,-3.423708439E0,8.140286058E-2,1.388636976E-1
2.180177845E0,6.715735912E0,2.178723514E-1,3.974374771E0
2.182627653E0,1.237562847E1,6.710947514E0,7.139509678E0
2.184306576E0,5.676652431E0,1.040520096E1,2.588132143E0
2.186740422E0,-8.485051155E0,8.851364136E0,-6.464344501E0
2.188399153E0,-1.818635559E1,9.354146004E0,-7.304709435E0
2.190873999E0,-1.912009430E1,1.505234623E1,2.992752075E0
2.192595037E0,-1.664688492E1,1.880645370E1,1.285446930E1
2.195410968E0,-1.491108799E1,1.371398735E1,1.169567490E1
2.197021537E0,-1.037168217E1,4.826710701E0,3.047818661E0
2.199478237E0,-2.274491638E-1,2.173935175E0,-1.625662923E0
2.200623307E0,1.024478912E1,5.281609058E0,1.675941199E-1
2.203548237E0,1.337879944E1,8.465897560E0,3.052607059E0
2.204775768E0,9.014169693E0,1.035492229E1,4.347870350E0
2.207652199E0,2.451662540E0,1.344823074E1,4.912901878E0
2.208847460E0,-3.371036053E0,1.637394524E1,5.027823448E0
2.211756276E0,-7.565677166E0,1.247857952E1,1.812410712E0
2.213001191E0,-6.294356346E0,4.515464306E0,-2.355894566E0
2.215859737E0,1.776497602E0,2.571372509E0,-1.580173135E0
2.217568076E0,1.029746151E1,1.116895103E1,6.799532771E-1
2.219898352E0,7.690176010E0,1.263420200E1,-1.699883223E0
2.221067230E0,-3.576937437E0,1.087446404E1,-1.025197124E1
2.223966660E0,-1.352484512E1,9.581595421E0,-1.354878712E1
2.225157883E0,-1.603396797E1,1.358230591E1,-5.607220173E0
2.228070622E0,-1.469082165E1,1.864364815E1,7.977479935E0
2.229268614E0,-1.443224812E1,1.242830086E1,5.650316238E0
2.231985845E0,-1.014183807E1,4.874594688E0,-1.316810995E-1
2.233394999E0,-2.106897533E-1,2.396595955E0,-5.075707436E-1
2.236276199E0,9.172186852E0,2.952050686E0,3.160346270E0
2.237865999E0,1.116416264E1,4.979939461E0,7.532158375E0
2.239713306E0,6.787561893E0,8.631096840E0,1.086728191E1
2.241559422E0,1.115697980E0,1.335964584E1,1.172201157E1
2.243996999E0,-3.948038578E0,1.481053162E1,9.497797966E0
2.245697845E0,-6.505045891E0,8.875306129E0,4.218583584E0
2.248071114E0,-1.900996208E0,1.905784607E0,1.156399369E0
2.249765191E0,8.109161377E0,3.464409828E0,4.635174274E0
2.252124537E0,1.304121685E1,9.883264542E0,7.448361397E0
2.253866614E0,5.923254967E0,1.070687008E1,8.906430602E-1
2.256741160E0,-7.141903877E0,7.589619160E0,-9.301473618E0
2.258087883E0,-1.575384712E1,8.813055992E0,-1.009634876E1
2.260257499E0,-1.677856636E1,1.598608494E1,-3.112462163E-1
2.261924191E0,-1.555273438E1,2.081518936E1,8.614337921E0
2.264322345E0,-1.467406178E1,1.516966152E1,6.524199486E0
2.266003153E0,-1.034534550E1,6.433219910E0,-6.991068721E-1
2.268426230E0,-4.357447028E-1,3.866635799E0,-1.874659896E0
2.270152345E0,9.955090523E0,6.028599739E0,2.264914751E0
2.272603345E0,1.366610336E1,9.148244858E0,6.440402508E0
2.274253345E0,1.026154804E1,1.111149025E1,7.417236805E0
2.277154583E0,4.527435303E0,1.295981407E1,6.205770969E0
2.278669999E0,-2.908955097E0,1.163821411E1,4.436455727E0
2.281220621E0,-4.031835556E0,9.023746490E0,3.758896589E0
2.282376383E0,-1.719036818E0,3.718195200E0,2.779668093E0
2.285280037E0,7.884106159E0,6.691793919E0,4.814739704E0
2.286483191E0,6.268020153E0,1.114022064E1,3.160346270E0
2.289391621E0,-3.174711466E0,9.440337181E0,-4.103661537E0
2.290572191E0,-1.176271248E1,7.766790390E0,-7.812280178E0
2.293494037E0,-1.514332581E1,1.122401714E1,-1.965639591E0
2.294693922E0,-1.594538307E1,1.624465942E1,6.301538944E0
2.297596352E0,-1.735556793E1,1.584482670E1,7.922413349E0
2.299381806E0,-1.608185196E1,9.385271072E0,1.936909199E0
2.301636698E0,-8.714894295E0,5.614402771E0,-1.647210717E0
2.302834076E0,1.860294700E0,6.054935932E0,1.307234168E0
2.305705237E0,8.966285706E0,6.801927090E0,5.152322292E0
2.306937653E0,9.354146004E0,8.008605003E0,7.350199223E0
2.309808429E0,4.944026470E0,1.147540855E1,8.836998940E0
2.311038383E0,1.077390760E-1,1.489672279E1,8.918401718E0
2.313772114E0,-2.808398485E0,1.201889229E1,5.420472622E0
2.315156845E0,-1.537077546E0,3.256114244E0,0.000000000E0
2.318014891E0,5.528211594E0,-1.185129881E0,-1.151610970E0
2.319692345E0,1.522951698E1,8.020575523E0,2.863465309E0
2.321471537E0,1.331176186E1,1.111149025E1,2.020706177E0
2.323318383E0,1.745373011E0,1.112585545E1,-5.849034786E0
2.325804345E0,-1.089840603E1,8.978256226E0,-1.282813263E1
2.327354306E0,-1.690066910E1,1.293587208E1,-7.829039574E0
2.329777499E0,-1.792299461E1,1.868195534E1,2.731784105E0
2.331524537E0,-1.867956161E1,1.747527885E1,6.715735912E0
2.333996114E0,-1.798524284E1,9.938331604E0,2.454056740E0
2.335658037E0,-1.182256794E1,4.807557106E0,-1.594538331E0
2.338490660E0,2.894589901E0,6.473921299E0,2.578555346E0
2.339747960E0,7.335834026E0,7.481880188E0,6.459556103E0
2.342108883E0,7.469909191E0,8.104372978E0,9.054870605E0
2.343822614E0,6.342240334E0,1.016338634E1,1.173158836E1
2.346257076E0,4.570530891E0,9.524134636E0,1.153286934E1
2.348046691E0,3.102885485E0,3.591302633E0,6.847416878E0
2.350289229E0,4.850652695E0,-1.630451322E0,2.827552319E0
2.352022614E0,9.718064308E0,1.120486379E0,3.790021181E0
2.354451153E0,1.020169353E1,9.409213066E0,5.731719017E0
2.356174729E0,6.296750307E-1,1.249294472E1,9.576807022E-1
2.359028390E0,-1.268208599E1,1.018493366E1,-8.221688271E0
2.360549922E0,-2.085110283E1,1.176750088E1,-9.560047150E0
2.363103967E0,-2.201229095E1,1.745133591E1,-2.370259762E0
2.364252537E0,-1.982638359E1,1.937388039E1,2.640804529E0
2.367172852E0,-1.663012505E1,1.431732655E1,7.589619160E-1
2.368369306E0,-1.045069027E1,7.486668587E0,-3.847482204E0
2.371276583E0,-8.571242094E-1,5.307945251E0,-3.797203779E0
2.372488653E0,7.314286232E0,6.777985096E0,8.403648138E-1
2.375380006E0,9.837775230E0,7.654263020E0,4.225766182E0
2.376633191E0,8.183381081E0,9.749189377E0,6.452373505E0
2.379483083E0,4.752490520E0,1.370441055E1,9.323021889E0
2.381459768E0,-2.226607651E-1,8.717288017E0,5.846640587E0
2.383528006E0,-5.410895944E-1,4.398148537E0,3.220201254E0
2.384711076E0,2.624045134E0,-1.312022567E0,9.888052940E-1
2.387596467E0,8.437167168E0,2.305616140E0,4.180276394E0
2.388809229E0,8.188169479E0,1.131739140E1,7.438784599E0
2.391700083E0,-1.012268448E1,1.253604031E1,-1.505952835E0
2.392912845E0,-2.077688217E1,1.017056847E1,-6.672640324E0
2.395569883E0,-2.304419136E1,1.323514652E1,-1.213860273E0
2.397028960E0,-2.000834274E1,1.653196335E1,6.524199486E0
2.399906544E0,-1.617761993E1,1.390791798E1,7.323863029E0
2.401532729E0,-1.125035381E1,7.113173485E0,1.774103403E0
2.403342922E0,-3.426102638E0,2.973598480E0,-2.250549555E0
2.405153422E0,5.049371243E0,3.962403774E0,-1.963245422E-1
2.407626768E0,9.150638580E0,7.158663273E0,4.843470097E0
2.409277922E0,8.398859978E0,1.031422138E1,8.420407295E0
2.411678653E0,5.114014626E0,1.370919895E1,1.005325317E1
2.413369653E0,3.447650373E-1,1.279461384E1,8.329427719E0
2.415735306E0,-2.303221941E0,5.018246651E0,2.535459518E0
2.417480883E0,8.020575643E-1,-1.036689281E0,-6.057330370E-1
2.420361890E0,7.821856976E0,1.010353088E0,1.798045516E0
2.421835383E0,1.085770512E1,8.595184326E0,4.407725334E0
2.424123191E0,3.483563423E0,1.236126328E1,9.409212470E-1
2.426040152E0,-8.547300339E0,9.255983353E0,-7.687781811E0
2.428175229E0,-1.538992882E1,8.516175270E0,-9.299078941E0
2.429925383E0,-1.594538307E1,1.374271774E1,-2.753331959E-1
2.432164652E0,-1.520796967E1,1.634042740E1,7.259219646E0
2.433896806E0,-1.525345898E1,1.143470764E1,5.389348030E0
2.436318037E0,-1.303403378E1,4.742913723E0,-1.003170490E0
2.438031383E0,-2.310404539E0,4.711789131E0,-1.362300754E0
2.440907390E0,3.562572241E0,8.358158112E0,3.438073635E0
2.442710614E0,4.326322556E0,1.032619190E1,6.526593685E0
2.444984775E0,1.929726601E0,1.245224285E1,8.358158112E0
2.446181383E0,-9.911994934E-1,1.348653793E1,8.935160637E0
2.449053005E0,-2.250549555E0,8.619126320E0,5.030217648E0
2.450264537E0,2.466027737E-1,2.061407566E0,4.812345505E-1
2.453156121E0,6.236895561E0,1.484405041E0,3.926490843E-1
2.454354268E0,1.100853920E1,8.224082947E0,2.657563925E0
2.457258967E0,7.261613846E0,1.470997524E1,1.745373011E0
2.458569229E0,-4.163516521E0,1.309628296E1,-5.511452198E0
2.461361544E0,-1.363258457E1,9.840168953E0,-1.008916569E1
2.463071691E0,-1.601960373E1,1.306755257E1,-3.818751812E0
2.465393537E0,-1.465251446E1,1.756865120E1,5.099649429E0
2.466552152E0,-1.367089176E1,1.516487312E1,5.820304394E0
2.469467198E0,-1.179383755E1,7.793126583E0,-5.626373887E-1
2.470747729E0,-6.102819920E0,3.593696833E0,-4.486733913E0
2.473558845E0,9.528923035E-1,5.453991413E0,-1.127668977E0
2.474753268E0,4.060565948E0,8.449137688E0,4.355052948E0
2.477456729E0,2.250549555E0,1.035731697E1,7.096413612E0
2.478902152E0,-1.098938584E0,1.331894398E1,8.772355080E0
2.481776813E0,-4.254496574E0,1.351526833E1,8.090007782E0
2.483429922E0,-4.510675907E0,3.569754839E0,3.193865061E0
2.485296268E0,-1.968033791E0,9.313444495E-1,3.019088268E0
2.487025152E0,6.052541733E0,1.247379065E0,5.791574001E0
2.489494652E0,1.129344940E1,7.445967197E0,8.722076416E0
2.491147652E0,5.949591160E0,1.108515358E1,5.889736176E0
2.493549883E0,-5.978321552E0,8.334216118E0,-1.826775908E0
2.495211691E0,-1.434126854E1,9.825803757E0,6.081272364E-1
2.497755345E0,-1.336922264E1,1.505234623E1,1.000297451E1
2.499361460E0,-1.283531570E1,1.292150688E1,1.131020927E1
2.502244121E0,-1.187045193E1,5.758055210E0,4.529829502E0
2.503651460E0,-6.754043102E0,2.839523315E0,-4.094084799E-1
2.506166499E0,1.304839969E0,5.334281445E0,-5.746084079E-2
2.507474422E0,5.233725071E0,8.250418663E0,2.181117773E0
2.509907114E0,3.239354849E0,9.095572472E0,2.853888512E0
2.511592114E0,-3.854664862E-1,1.248815632E1,3.907337189E0
2.513903306E0,-3.787626982E0,1.756147003E1,5.808333397E0
2.515750422E0,-6.998251438E0,1.473870564E1,2.291250944E0
2.518094652E0,-6.301538944E0,5.961562157E0,-4.271255970E0
2.519822883E0,1.125274777E0,2.533065319E0,-4.982333660E0
2.522666159E0,1.046026707E1,7.788338184E0,-8.643068075E-1
2.524206537E0,1.179862595E1,1.364934349E1,1.029506698E-1
2.526733428E0,2.566584110E0,1.229183197E1,-5.983109951E0
2.527933537E0,-7.410054207E0,8.937555313E0,-1.074038887E1
2.530801736E0,-1.094150162E1,1.180580902E1,-4.802768707E0
2.532065806E0,-1.086488724E1,1.651041412E1,5.066130638E0
2.534904813E0,-1.156878281E1,1.452801609E1,7.295132637E0
2.536120652E0,-1.146583176E1,8.410830498E0,2.607285738E0
2.539008582E0,-7.153874874E0,5.968744755E0,-1.244984865E-1
2.540261422E0,-7.541735172E-1,7.580042362E0,2.099714994E0
2.543112544E0,1.623268723E0,8.748413086E0,5.475539207E0
2.544838729E0,-1.529894829E0,9.469067574E0,8.207323074E0
2.547153697E0,-2.513911724E0,1.130542088E1,9.469067574E0
2.548493883E0,-4.450820923E0,1.402523327E1,1.118092155E1
2.551222351E0,-6.347028732E0,8.853757858E0,7.702147007E0
2.552422306E0,-4.733336926E0,4.788403511E-1,3.560178041E0
2.555325390E0,6.969521046E0,1.520318031E0,7.726089001E0
2.556693075E0,1.071165848E1,9.088389397E0,1.063025570E1
2.559237191E0,3.284844637E0,1.196621990E1,6.232107162E0
2.560658537E0,-7.302315235E0,8.628703117E0,-3.600879431E0
2.563531851E0,-1.125274754E1,8.599972725E0,-5.777208805E0
2.565175114E0,-9.710882187E0,1.358948898E1,1.934514999E0
2.567025345E0,-8.710105896E0,1.490151119E1,7.173028469E0
2.568845075E0,-9.835380554E0,9.521739960E0,3.639186621E0
2.571270960E0,-9.502586365E0,4.371812344E0,-2.873042107E0
2.572909806E0,-6.002263546E0,5.209783077E0,-4.249708176E0
2.575334499E0,-3.217807055E0,8.650250435E0,-1.122880578E0
2.577003345E0,-3.876212597E0,9.459490776E0,1.264138460E0
2.579368114E0,-5.592854977E0,1.082658005E1,3.356670856E0
2.581259499E0,-6.210559368E0,1.516726780E1,7.335834026E0
2.583999005E0,-6.117185116E0,1.371877575E1,6.847416878E0
2.585323037E0,-4.062960148E0,3.881000996E0,3.830722570E-1
2.587652614E0,2.530671120E0,-3.320757866E0,-2.631227732E0
2.589811691E0,1.182496262E1,-1.915361285E-1,8.475474119E-1
2.591793499E0,1.519599819E1,9.172186852E0,3.995922565E0
2.593486768E0,5.980715752E0,1.328542519E1,-1.458068848E0
2.595856114E0,-9.433155060E0,1.055124664E1,-1.224634171E1
2.597554460E0,-2.005622673E1,1.081700325E1,-1.392946529E1
2.600030575E0,-2.308010483E1,1.631169701E1,-4.302380562E0
2.601755960E0,-2.187103271E1,1.709699440E1,4.551377296E0
2.604536582E0,-1.930684280E1,9.900024414E0,-1.005564705E-1
2.606131652E0,-1.238520527E1,5.810727596E0,-3.871424198E0
2.608611313E0,-2.274491549E0,7.860164165E0,-7.924807668E-1
2.609767114E0,4.584896088E0,9.878476143E0,4.707000732E0
2.612679274E0,6.136339188E0,8.798690796E0,7.963114738E0
2.613958845E0,5.889736176E0,8.882488251E0,1.055364132E1
2.616783082E0,5.564124584E0,9.938331604E0,1.270363426E1
2.618053499E0,4.422090530E0,6.615179062E0,1.044590187E1
2.620886736E0,3.473986626E0,3.447650373E-1,6.406883717E0
2.622118537E0,5.619191170E0,-1.541865945E0,5.741295815E0
2.624990197E0,7.680599213E0,5.212177277E0,9.028534889E0
2.626799768E0,-4.812345505E0,1.398692608E1,6.385335922E0
2.629036428E0,-1.206438255E1,1.287841129E1,1.568202138E0
2.630231075E0,-2.321657372E1,9.756371498E0,-6.098031521E0
2.633104659E0,-2.580231094E1,1.181538582E1,-3.332728863E0
2.634318229E0,-2.196919441E1,1.613452530E1,4.347870350E0
2.637208197E0,-1.657266426E1,1.550963879E1,6.220136166E0
2.638454691E0,-1.121922874E1,9.258378029E0,6.344634295E-1
2.641311466E0,-3.050212860E0,3.627215624E0,-5.633556366E0
2.642638845E0,7.517793179E0,3.876212597E0,-5.827486992E0
2.645415120E0,1.442985344E1,5.870582581E0,-1.848323703E0
2.647044422E0,1.153286934E1,6.500257492E0,2.712630510E0
2.648871191E0,8.523358345E0,7.704541206E0,4.072536945E0
2.650770152E0,2.111685991E0,1.129584408E1,5.655104637E0
2.653133614E0,-4.031835556E0,1.298375607E1,4.012681961E0
2.654768383E0,-8.997409821E0,1.092474270E1,1.019929886E0
2.657280537E0,-6.950367451E0,5.868188381E0,2.992752194E-1
2.658872152E0,-4.620809257E-1,6.813898087E0,2.861071110E0
2.661317345E0,2.181117773E0,9.773131371E0,3.593696833E0
2.662998998E0,-1.956062794E0,1.020648193E1,-1.771709323E-1
2.665882082E0,-7.982268333E0,9.277531624E0,-3.323152065E0
2.667350691E0,-1.036689377E1,9.564835548E0,-4.357447028E-1
2.669504229E0,-8.355764389E0,1.025675964E1,5.542576790E0
2.671263614E0,-5.116408825E0,1.005804157E1,8.698134422E0
2.673959075E0,-3.138798475E0,8.080430984E0,6.519411087E0
2.675453422E0,-1.663970232E0,4.683058739E0,8.283938169E-1
2.677733845E0,9.576807022E-1,3.433285236E0,-2.248155355E0
2.679638075E0,3.217807055E0,6.517016888E0,4.141969085E-1
2.682098691E0,2.279279947E0,1.090319443E1,4.651933670E0
2.683558114E0,-2.681505919E0,1.352005672E1,6.064512730E0
2.686429005E0,-9.035717010E0,1.313937855E1,4.709394932E0
2.688041191E0,-1.028309631E1,1.128626728E1,3.902548790E0
2.690509428E0,-8.133103371E0,1.197100830E1,5.547365189E0
2.691675883E0,-2.918531895E0,1.214817905E1,8.358158112E0
2.694578235E0,1.012747288E0,8.252813339E0,6.543353081E0
2.695812229E0,3.172317266E0,3.677493811E0,2.964021683E0
2.698682428E0,5.171475887E0,1.948880196E0,4.070142806E-1
2.699880575E0,6.770802498E0,5.430049419E0,4.716577232E-1
2.702786581E0,4.690241337E0,1.200213337E1,2.466027737E0
2.704033345E0,-1.929726601E0,1.547133160E1,2.858676910E0
2.706889235E0,-1.069011021E1,1.220803452E1,1.084573388E0
2.708675614E0,-1.077151299E1,9.476250648E0,2.013523579E0
2.710927197E0,-7.661445618E0,9.009381294E0,3.730166197E0
2.712108460E0,-4.630385876E0,1.033337498E1,3.981557369E0
2.714995351E0,-4.046200752E0,1.054645824E1,1.357512355E0
2.716239922E0,-4.900930882E0,7.989450932E0,-2.501940727E0
2.719098312E0,-3.952826977E0,6.179434776E0,-3.169923067E0
2.720393922E0,-7.541735172E-1,8.432378769E0,1.046266198E0
2.723054806E0,1.620874524E0,1.205719948E1,5.990292549E0
2.724478806E0,1.185129881E0,1.220085144E1,6.533776283E0
2.727304581E0,-1.197100878E-1,8.295908928E0,3.521870613E0
2.728917229E0,3.902548850E-1,4.496310711E0,1.640028119E0
2.730897652E0,1.604115129E0,5.128379822E0,4.134786129E0
2.732588691E0,1.197100803E-2,8.185775757E0,7.407660007E0
2.735012614E0,-4.977545261E0,9.866505623E0,6.279991150E0
2.736707691E0,-1.036689377E1,8.669404030E0,1.292868972E0
2.739074152E0,-1.163342571E1,6.081272125E0,-4.309563160E0
2.740777960E0,-7.623138428E0,7.984662533E0,-3.399766445E0
2.743194883E0,-1.561019540E0,1.192791271E1,1.237802267E0
2.744940152E0,1.414973259E0,1.295023727E1,3.541024208E0
2.747766120E0,2.992752194E-1,9.981427193E0,2.068590164E0
2.749123306E0,-1.572990537E0,5.760449409E0,-8.667010069E-1
2.751278768E0,-1.120486379E0,5.458779812E0,-3.998316824E-1
2.753015114E0,1.297657371E0,9.040505409E0,2.928108692E0
2.755461191E0,2.947262287E0,1.217690945E1,4.766855717E0
2.757246421E0,2.408566952E0,1.071165848E1,1.929726601E0
2.759576960E0,1.563413739E0,6.136339188E0,-3.244143248E0
2.761183075E0,2.011129379E0,3.485957623E0,-4.900930882E0
2.763674845E0,2.272097349E0,7.996633530E0,1.644816518E0
2.765702460E0,-1.347935557E0,1.279940224E1,6.279991150E0
2.768179120E0,-8.140285492E0,1.408748245E1,6.677428722E0
2.770284845E0,-1.391270638E1,1.041477776E1,3.790021181E0
2.772224350E0,-1.440351772E1,5.453991413E0,2.039859772E0
2.773402075E0,-8.920795441E0,4.520252705E0,4.735731125E0
2.776292389E0,-1.142034173E0,7.244854450E0,8.176198959E0
2.777537421E0,2.829946518E0,9.612719536E0,7.666234016E0
2.780395696E0,1.072602391E0,7.558494568E0,2.123656988E0
2.781586845E0,-1.613691926E0,3.241749048E0,-3.002328873E0
2.784499235E0,-1.015141487E0,3.421314240E0,1.221042871E-1
2.785908729E0,4.788403511E-1,8.142680168E0,8.501810074E0
2.788602504E0,-1.747767210E0,1.262941360E1,1.346499062E1
2.790332075E0,-7.891288757E0,1.363018990E1,1.118810463E1
2.792644196E0,-1.340274143E1,1.128147888E1,5.712565422E0
2.793843575E0,-1.417606831E1,8.798690796E0,4.431667328E0
2.796712543E0,-9.878476143E0,7.814674377E0,8.188169479E0
2.798356114E0,-3.088520288E0,7.489062786E0,1.168849277E1
2.800816504E0,2.511517525E0,7.292738438E0,1.126471901E1
2.802065575E0,4.845864296E0,6.064512730E0,6.303933144E0
2.804748845E0,4.546588898E0,4.211400986E0,7.565677166E-1
2.806185845E0,3.086126089E0,3.502717018E0,-4.788403213E-2
2.809024235E0,8.547300100E-1,5.657498837E0,4.058171749E0
2.810792460E0,-6.210559368E0,1.244745445E1,8.753201485E0
2.812509614E0,-9.560047150E0,1.382172680E1,7.335834026E0
2.814332421E0,-1.566526127E1,1.382890892E1,1.003170490E0
2.816748883E0,-1.786553383E1,1.162384892E1,-4.096478939E0
2.818521075E0,-1.380736160E1,1.005085850E1,-3.421314240E0
2.820889191E0,-5.475539207E0,1.010592556E1,7.374141216E-1
2.822525191E0,2.121262789E0,1.033816338E1,2.535459518E0
2.824804268E0,5.698200226E0,8.841787338E0,-2.779668093E0
2.826599306E0,4.558559895E0,7.225700855E0,-5.506663799E0
2.829434850E0,3.890577793E0,6.088454723E0,-3.318363667E0
2.831051460E0,4.041412354E0,6.356605530E0,2.154781580E0
2.833045498E0,2.530671120E0,8.233659744E0,6.727706909E0
2.835028768E0,-1.678335428E0,1.086009884E1,7.829039574E0
2.837298037E0,-6.648698330E0,1.233013916E1,5.997475147E0
2.839014421E0,-9.097966194E0,1.083615685E1,3.806780815E0
2.841282114E0,-7.048529625E0,7.345410824E0,4.249708176E0
2.842994306E0,-1.273715258E0,4.417302132E0,7.098807812E0
2.845430268E0,4.295197964E0,3.907337189E0,9.138668060E0
2.847113037E0,5.628767967E0,5.489904404E0,7.493851185E0
2.849974465E0,2.116474390E0,7.278373241E0,2.547430515E0
2.851616152E0,-3.031059265E0,8.221688271E0,-1.470039845E0
2.854050081E0,-6.526593685E0,8.580819130E0,-1.003170490E0
2.855321191E0,-7.163451672E0,8.789113998E0,2.710236311E0
2.858118042E0,-5.468356609E0,8.664615631E0,4.893748283E0
2.859340921E0,-2.602497339E0,8.463502884E0,3.160346270E0
2.862221350E0,3.136404157E-1,8.523358345E0,-1.005564690E0
2.863408268E0,2.415749550E0,9.234436035E0,-3.253720045E0
2.866324465E0,3.711012602E0,9.849745750E0,-1.508347034E0
2.867590383E0,4.173093796E0,9.674968719E0,1.640028119E0
2.870427504E0,3.272873640E0,9.344569206E0,3.055001259E0
2.872232306E0,-6.703764796E-1,1.029027843E1,4.309563041E-1
2.874486350E0,-3.591302633E0,1.177707863E1,-1.091755986E0
2.875634844E0,-6.011840343E0,1.205241108E1,5.267243832E-2
2.878554235E0,-7.661445618E0,1.029985619E1,3.296815634E0
2.879732614E0,-8.125920296E0,7.608773232E0,6.485892296E0
2.882654498E0,-7.457938194E0,6.339846134E0,8.540117264E0
2.883851114E0,-5.516240597E0,7.618350029E0,9.296685219E0
2.886761773E0,-2.557007313E0,9.442731857E0,8.832210541E0
2.888193460E0,-3.112462163E-2,1.035013390E1,8.473079681E0
2.890866235E0,1.776497602E0,1.049857426E1,1.074038887E1
2.892561306E0,3.318363667E0,6.289567947E0,1.010592556E1
2.894372614E0,3.840299606E0,3.541024208E0,9.296685219E0
2.896134691E0,4.115632534E0,4.115632534E0,8.434772491E0
2.898645383E0,3.658340216E0,6.576871872E0,4.869806290E0
2.900249614E0,6.344634295E-1,1.006761837E1,1.455674648E0
2.902662960E0,-5.264849663E0,1.148259163E1,-1.233013868E0
2.904352883E0,-1.104684639E1,1.128626728E1,-1.233013868E0
2.906775537E0,-1.508586502E1,1.032140350E1,2.178723514E-1
2.908473691E0,-1.705868721E1,9.603142738E0,1.338358760E0
2.911348158E0,-1.589989376E1,1.019690514E1,1.244984865E0
2.912617575E0,-1.076433086E1,1.212184334E1,5.099649429E-1
2.914992152E0,-3.493140221E0,1.341710663E1,3.495534360E-1
2.916686806E0,3.224989653E0,1.149935055E1,5.075707436E-1
2.919124960E0,9.054870605E0,7.723694801E0,1.491587639E0
2.920843460E0,1.404678154E1,4.766855717E0,2.834734917E0
2.923202152E0,1.500446224E1,4.960785866E0,3.749319792E0
2.924922229E0,9.770736694E0,6.979097843E0,2.851494312E0
2.927366652E0,1.606509328E0,9.308655739E0,2.700659513E0
2.929098883E0,-7.714118004E0,1.031661510E1,4.446032524E0
2.931903850E0,-1.655590439E1,9.023746490E0,6.754043102E0
2.933517998E0,-2.257013893E1,7.395689011E0,8.906430244E0
2.935983850E0,-2.307531548E1,7.161057472E0,9.708487511E0
2.937174383E0,-1.764287186E1,8.588001251E0,8.451532364E0
2.940053196E0,-8.604761124E0,1.026633644E1,5.959167957E0
2.941256075E0,9.193734527E-1,9.667786598E0,3.232172251E0
2.944156811E0,9.346963882E0,6.871358871E0,2.104503393E0
2.945339344E0,1.526303577E1,4.139574528E0,3.239354849E0
2.948261042E0,1.654393387E1,2.806004286E0,4.115632534E0
2.949494998E0,1.231098557E1,3.663128614E0,2.719813108E0
2.952365196E0,5.044582844E0,6.768408298E0,-7.015010715E-1
2.954081883E0,-6.071695328E0,1.295502567E1,-4.809951305E0
2.956404003E0,-9.351752281E0,1.440112305E1,-4.970362663E0
2.957585652E0,-1.435323906E1,1.520557499E1,-4.000710964E0
2.960473503E0,-1.622071648E1,1.406354046E1,-2.528276920E0
2.961655844E0,-1.460941887E1,1.266772079E1,-1.340752959E0
2.964578157E0,-9.548076630E0,1.153765774E1,-1.302445769E0
2.965775229E0,-1.862688899E0,1.040280628E1,-2.157175779E0
2.968629729E0,6.198588371E0,8.760383606E0,-2.303221941E0
2.970045614E0,1.166215611E1,7.129932880E0,-4.046200812E-1
2.972787696E0,1.270123959E1,6.167463779E0,2.851494312E0
2.974483614E0,6.107608318E0,6.591237068E0,6.234501362E0
2.976244267E0,-1.230619669E0,8.207323074E0,7.108384609E0
2.978024460E0,-7.137115479E0,9.835380554E0,7.302315235E0
2.980551460E0,-9.548076630E0,1.058476543E1,7.426813602E0
2.982188614E0,-8.937555313E0,1.000536919E1,7.486668587E0
2.984592806E0,-7.168240070E0,8.863334656E0,7.007828236E0
2.986297037E0,-5.875370979E0,8.054094315E0,5.628767967E0
2.988658998E0,-5.427655220E0,7.752425194E0,3.289633036E0
2.990405921E0,-4.965574265E0,8.293514252E0,1.201889277E0
2.993259888E0,-3.672705412E0,9.670180321E0,7.158663273E-1
2.994589691E0,-1.446097851E0,1.059673691E1,1.491587639E0
2.996805921E0,9.217676520E-1,1.033098030E1,2.999934673E0
2.998489114E0,2.530671120E0,9.255983353E0,5.051765442E0
3.000901921E0,2.899378300E0,7.955932140E0,6.957550049E0
3.002582191E0,1.716642618E0,6.936002254E0,8.106766701E0
3.005113191E0,-4.405331016E-1,6.701370716E0,8.623914719E0
3.006977806E0,-2.111685991E0,6.928819656E0,8.341399193E0
3.009273075E0,-2.786850691E0,7.252037048E0,7.259219646E0
3.010896498E0,-3.174711466E0,7.690176010E0,5.944802761E0
3.013676965E0,-4.012681961E0,8.331821442E0,4.594472885E0
3.015258998E0,-5.987898350E0,9.995792389E0,3.028665066E0
3.017744157E0,-6.545747280E0,1.058476543E1,2.602497339E0
3.019036037E0,-7.161057472E0,1.115219116E1,1.793257117E0
3.021814119E0,-6.538564682E0,1.022802925E1,8.355764151E-1
3.023115344E0,-4.304774761E0,8.480262756E0,-5.027823523E-2
3.025919465E0,-1.331176162E0,7.539340973E0,-8.619125932E-2
3.027116960E0,7.996633649E-1,8.362946510E0,6.368576288E-1
3.030024542E0,6.847416759E-1,1.033816338E1,1.242590666E0
3.031619883E0,-3.083731890E0,1.188721180E1,7.422025204E-1
3.034129388E0,-4.786009312E0,1.129584408E1,3.375824392E-1
3.035874575E0,-3.806780815E0,1.004128170E1,6.847416759E-1
3.038173580E0,-6.296750307E-1,8.817844391E0,1.221042871E0
3.039364229E0,2.262520552E0,7.965508938E0,7.924807668E-1
3.042243349E0,2.511517525E0,8.099584579E0,-6.440402865E-1
3.043466229E0,-3.495534360E-1,9.782708168E0,-1.587355733E0
3.046348965E0,-5.152322292E0,1.222479343E1,-1.079784989E0
3.047903960E0,-9.835380554E0,1.374032402E1,4.884171486E-1
3.050292767E0,-1.238041687E1,1.338837624E1,2.087743998E0
3.051862614E0,-1.148498535E1,1.193270111E1,3.641580820E0
3.054560272E0,-7.345410824E0,1.054166985E1,5.571307182E0
3.056335229E0,-2.015917778E0,9.457097054E0,8.037335396E0
3.058103421E0,2.116474390E0,8.046912193E0,1.055842972E1
3.059842037E0,4.058171749E0,6.524199486E0,1.286643982E1
3.062293306E0,4.185064793E0,5.612008572E0,1.517444992E1
3.063931806E0,3.533841610E0,5.257667065E0,1.636197472E1
3.066497191E0,2.679111719E0,5.420472622E0,1.583285618E1
3.068083806E0,1.692700624E0,5.518634796E0,1.309149456E1
3.070424498E0,4.572925270E-1,6.105214119E0,9.220070839E0
3.072286152E0,-1.508347034E0,7.838616371E0,5.841852188E0
3.075042157E0,-4.493916512E0,9.677363396E0,2.530671120E0
3.076305614E0,-8.145073891E0,1.118331623E1,-5.770025849E-1
3.078894190E0,-1.119289303E1,1.251449203E1,-2.889801502E0
3.080361267E0,-1.231098557E1,1.375468922E1,-4.141968727E0
3.082788037E0,-9.672574997E0,1.399889755E1,-4.905719280E0
3.084471652E0,-6.241683960E0,1.253125191E1,-4.939238071E0
3.086858960E0,-2.365471363E0,1.097502041E1,-3.660734415E0
3.088724767E0,1.350329757E0,1.029985619E1,-1.089361787E0
3.091180075E0,4.012681961E0,1.021127033E1,1.843535304E0
3.092730075E0,5.224148273E0,9.615114212E0,3.907337189E0
3.095584041E0,5.600037575E0,8.310274124E0,5.204994678E0
3.097132844E0,5.863399982E0,6.928819656E0,6.368576527E0
3.099660849E0,5.408501625E0,6.100425720E0,7.388506413E0
3.100928152E0,3.055001259E0,5.980715752E0,7.601590633E0
3.103730657E0,-1.393425345E0,7.211335659E0,7.067683220E0
3.105012960E0,-6.916848660E0,9.911994934E0,6.794744492E0
3.107835311E0,-1.208114147E1,1.218409252E1,6.766014099E0
3.109050844E0,-1.510501862E1,1.216493893E1,6.746860504E0
3.111940041E0,-1.421437550E1,9.818621635E0,6.761225700E0
3.113156806E0,-9.035717010E0,6.974309444E0,7.170634270E0
3.116043734E0,-1.328781962E0,5.315127850E0,7.912836552E0
3.117920575E0,8.003816605E0,4.714183331E0,7.814674377E0
3.120090118E0,9.399636269E0,4.723760128E0,7.405265808E0
3.121319690E0,9.380482674E0,4.963180065E0,6.830657482E0
3.124159503E0,6.842628479E0,5.255272865E0,6.909666061E0
3.125476537E0,3.337517262E0,5.621585369E0,7.117961884E0
3.128246503E0,-4.453215301E-1,6.160281181E0,6.610390663E0
3.129500614E0,-3.921702385E0,6.622362137E0,4.220977783E0
3.132098767E0,-6.552929878E0,7.493851185E0,5.099649429E-1
3.133573498E0,-8.192957878E0,9.358934402E0,-2.545036316E0
3.136420272E0,-8.851364136E0,1.164779091E1,-4.060565948E0
3.138045537E0,-7.544129372E0,1.346499062E1,-4.668693542E0
3.139965960E0,-4.577713490E0,1.308910084E1,-5.090072632E0
3.141794190E0,-1.077390760E-1,1.195424938E1,-5.331887245E0
3.144147229E0,4.594472885E0,1.045547867E1,-4.718971729E0
3.145777383E0,8.128314972E0,8.659827232E0,-2.892195702E0
3.148216614E0,9.466673851E0,6.991068840E0,-3.471592367E-1
3.150034421E0,7.809885979E0,6.754043102E0,3.112462282E0
3.152259729E0,3.689464808E0,7.524975777E0,6.330269337E0
3.154020037E0,-1.168370485E0,8.480262756E0,8.506598473E0
3.156894503E0,-4.833893299E0,9.054870605E0,9.988609314E0
3.158178690E0,-6.318298340E0,8.554482460E0,1.046745014E1
3.160487729E0,-5.882553577E0,7.266402245E0,1.000776291E1
3.162213575E0,-4.508281708E0,6.189011574E0,8.729259491E0
3.164644383E0,-3.538630009E0,6.550535679E0,7.125144482E0
3.166317844E0,-3.955221176E0,8.382100105E0,5.638344765E0
3.168798652E0,-5.523423195E0,1.015620327E1,4.010287762E0
3.170780075E0,-7.189787865E0,1.055603504E1,2.659958124E0
3.173036460E0,-7.517793179E0,9.744400978E0,2.607285738E0
3.175051921E0,-5.482721806E0,8.784325600E0,4.261679173E0
3.177416195E0,-1.532289028E0,7.884106159E0,6.131550789E0
3.179037498E0,3.727771997E0,6.945579052E0,7.350199223E0
3.181497464E0,4.537012100E0,6.835445881E0,7.580042362E0
3.182680037E0,4.898536682E0,7.149086475E0,8.741230011E0
3.185567080E0,4.496310711E0,7.785943985E0,1.073320580E1
3.186857844E0,3.732560396E0,7.740454197E0,1.188960552E1
3.189672118E0,1.936909199E0,6.526593685E0,1.088882923E1
3.191136267E0,1.434126854E0,5.427655220E0,7.896077156E0
3.193776464E0,1.118092179E0,5.762843609E0,5.288791656E0
3.195050306E0,-5.746084079E-2,7.225700855E0,3.241749048E0
3.197880810E0,-2.858676910E0,9.380482674E0,1.989581585E0
3.199649229E0,-6.854599476E0,1.114022064E1,9.983820915E-1
3.201924695E0,-1.031661510E1,1.226070690E1,-1.077390760E-1
3.203120344E0,-1.174834728E1,1.304839897E1,-6.224924326E-1
3.205994695E0,-1.036928749E1,1.244506073E1,-1.194706678E0
3.207194729E0,-6.660669327E0,1.057997704E1,-1.584961534E0
3.210099156E0,-1.850717902E0,8.453926086E0,-1.151610970E0
3.211457113E0,2.794033289E0,7.256825447E0,-2.202665508E-1
3.214073037E0,5.930437565E0,7.601590633E0,8.403648138E-1
3.215482767E0,6.555324078E0,8.698134422E0,1.493981838E0
3.218307464E0,5.415684223E0,9.394847870E0,1.596932530E0
3.220158421E0,4.050989151E0,9.176975250E0,1.453280449E0
3.221831844E0,3.213018656E0,8.406042099E0,1.350329757E0
3.223670883E0,2.430114746E0,7.946355343E0,1.067813993E0
3.226168844E0,8.259995580E-1,8.169015884E0,-7.900865376E-2
3.227862767E0,-2.482787132E0,9.473855972E0,-1.165976286E0
3.230132729E0,-7.005434036E0,1.136767006E1,-1.151610970E0
3.231864344E0,-1.124317074E1,1.262223148E1,1.388636976E-1
3.234153806E0,-1.362779617E1,1.218648624E1,2.413355350E0
3.235924537E0,-1.312980175E1,9.897629738E0,5.003881454E0
3.238792233E0,-9.366117477E0,7.089231014E0,7.948749542E0
3.240098498E0,2.729389966E-1,4.651933670E0,1.289995861E1
3.242348383E0,3.272873640E0,4.153939724E0,1.422874069E1
3.244250960E0,7.137115479E0,3.394978046E0,1.630690765E1
3.246411190E0,7.764396191E0,3.981557369E0,1.927092934E1
3.248133921E0,6.275202751E0,5.178658485E0,2.041057014E1
3.250572998E0,4.094084740E0,5.561730385E0,1.922304535E1
3.252294537E0,2.056619167E0,4.821922302E0,1.547133160E1
3.254651729E0,7.541735172E-1,4.556165695E0,1.080024433E1
3.256348267E0,-2.657563984E-1,5.767632008E0,6.641515732E0
3.259210695E0,-2.224213362E0,7.948749542E0,2.772485495E0
3.260740806E0,-5.693411827E0,1.067095661E1,-7.637503147E-1
3.263279041E0,-9.770736694E0,1.307952404E1,-4.252102375E0
3.264723729E0,-1.257434750E1,1.513135433E1,-7.094019413E0
3.267348887E0,-1.278024864E1,1.660857773E1,-8.348581314E0
3.268586921E0,-9.859322548E0,1.597890186E1,-8.884882927E0
3.271453387E0,-4.742913723E0,1.324232960E1,-8.822632790E0
3.272655729E0,8.619126081E-1,1.000297451E1,-7.603984833E0
3.275529118E0,5.556941986E0,8.386888504E0,-5.169081688E0
3.276691037E0,8.087613106E0,8.887276649E0,-1.987187386E0
3.279598810E0,7.393294811E0,9.780313492E0,6.799532771E-1
3.281271921E0,2.415749550E0,1.006043530E1,4.486733913E0
3.283624883E0,6.703764796E-1,9.734824181E0,5.949591160E0
3.284821883E0,-1.977610588E0,8.192957878E0,8.597578049E0
3.287713041E0,-3.658340216E0,6.210559368E0,1.058237171E1
3.288910306E0,-5.018246651E0,4.886565685E0,1.157117653E1
3.291817656E0,-6.356605530E0,5.200206280E0,1.169806957E1
3.293017575E0,-7.852981567E0,6.706159115E0,1.138442898E1
3.295750267E0,-9.136273384E0,7.407660007E0,1.039322948E1
3.297141690E0,-9.071630478E0,6.598419666E0,9.188945770E0
3.300027579E0,-6.861782074E0,5.243301868E0,8.614337921E0
3.301875306E0,-5.961562395E-1,4.264073372E0,8.283937454E0
3.303567306E0,3.385401249E0,4.565742493E0,7.283161640E0
3.305301421E0,5.468356609E0,5.267243862E0,5.683835030E0
3.307781421E0,5.125985622E0,6.330269337E0,4.644751072E0
3.309392075E0,2.992752075E0,8.032546997E0,5.128379822E0
3.311821344E0,4.381389022E-1,9.564835548E0,5.758055210E0
3.313494036E0,-1.630451322E0,9.854534149E0,4.580107689E0
3.315860767E0,-2.557007313E0,8.939949036E0,1.683123827E0
3.317702536E0,-1.908178806E0,8.058882713E0,-1.359906554E0
3.320509810E0,-3.591302633E-1,8.372523308E0,-2.518700123E0
3.321754113E0,4.118026793E-1,9.294290543E0,-2.212242365E0
3.324074883E0,-7.996633649E-1,1.009634876E1,-1.726219416E0
3.325812806E0,-3.430891037E0,1.086009884E1,-1.505952835E0
3.328310844E0,-5.566518784E0,1.202846909E1,-1.228225470E0
3.329924998E0,-6.062118530E0,1.304839897E1,-3.902548850E-1
3.332382729E0,-4.675876141E0,1.213142014E1,3.591302633E-1
3.334055383E0,-1.905784607E0,9.579200745E0,1.223437071E0
3.336544383E0,1.170764685E0,7.627926826E0,3.445256233E0
3.338177575E0,3.646369219E0,7.007828236E0,5.662287235E0
3.341055387E0,3.813963413E0,7.927201748E0,7.632715225E0
3.342652267E0,2.729389966E-1,9.224859238E0,9.066842079E0
3.345135425E0,-9.959878922E-1,9.387664795E0,9.437943459E0
3.346329960E0,-2.873042107E0,9.119514465E0,1.049857426E1
3.349204540E0,-3.730166197E0,7.766790390E0,1.089122391E1
3.350428921E0,-3.840299606E0,6.406883717E0,1.013465595E1
3.353308233E0,-4.012681961E0,6.789956093E0,7.596801758E0
3.354517652E0,-5.190629482E0,8.362946510E0,5.832275391E0
3.357411348E0,-7.201758862E0,9.780313492E0,4.912901878E0
3.358626229E0,-8.975862503E0,1.007240677E1,4.946420670E0
3.361514502E0,-9.449913979E0,8.777143478E0,5.398924828E0
3.363293536E0,-8.204929352E0,7.754819393E0,6.751648903E0
3.365561771E0,-5.334281445E0,7.220912457E0,8.068459511E0
3.366762960E0,-2.149993181E0,6.579266071E0,8.523358345E0
3.369630656E0,-3.112462163E-2,5.844246387E0,9.303867340E0
3.370881729E0,7.781155705E-1,5.157110691E0,1.069250488E1
3.373735463E0,8.427590132E-1,5.556941986E0,1.317289734E1
3.374982844E0,3.184288144E-1,6.174646378E0,1.471236992E1
3.377699190E0,-6.368576288E-1,5.889736176E0,1.344823074E1
3.379044652E0,-1.283292055E0,5.185841084E0,1.027351952E1
3.381942963E0,-7.948749661E-1,5.099649429E0,7.139509678E0
3.383552921E0,1.316810995E-1,6.203376770E0,5.415684223E0
3.385390690E0,-1.795651317E-1,7.637503624E0,4.024652958E0
3.387193344E0,-2.501940727E0,9.023746490E0,1.908178806E0
3.389702806E0,-5.267243862E0,9.979032516E0,-1.295263171E0
3.391354306E0,-6.045359135E0,1.019211674E1,-4.874594688E0
3.393773536E0,-4.247313976E0,1.047463226E1,-6.603208065E0
3.395427267E0,-1.072602391E0,1.055603504E1,-6.356605530E0
3.397930306E0,1.999158382E0,8.999804497E0,-6.883329868E0
3.399609036E0,3.797203779E0,6.995857239E0,-8.202534676E0
3.402417271E0,3.835511208E0,6.469132900E0,-8.908824921E0
3.403681729E0,3.495534360E-1,9.066842079E0,-7.287950039E0
3.406046075E0,-4.055777550E0,1.114740276E1,-4.577713490E0
3.407867729E0,-8.619126320E0,1.130781460E1,-2.351106167E0
3.410216267E0,-1.199734497E1,1.013944435E1,-3.040636182E-1
3.411889421E0,-1.324951267E1,8.844181061E0,1.826775908E0
3.414765579E0,-1.208832455E1,8.690952301E0,4.304774761E0
3.416052421E0,-9.062053680E0,9.385271072E0,6.653486729E0
3.418501383E0,-5.420472622E0,9.449913979E0,8.054094315E0
3.420088729E0,-2.466027737E0,7.970297337E0,8.963891029E0
3.422974809E0,-1.412578970E-1,5.492298603E0,1.049378586E1
3.425136459E0,3.495534420E0,3.299209833E0,1.489193439E1
3.427039117E0,4.608838081E0,2.971204281E0,1.618959236E1
3.428194421E0,5.765237808E0,2.545036316E0,1.721909904E1
3.431108463E0,4.891354084E0,2.908955097E0,1.661336517E1
3.432346498E0,2.631227732E0,4.563348293E0,1.562695408E1
3.435213732E0,1.364694983E-1,7.091625214E0,1.482968521E1
3.436454652E0,-2.355894566E0,8.801085472E0,1.321599293E1
3.439317771E0,-4.352658749E0,8.779537201E0,9.773131371E0
3.440639959E0,-4.496310711E0,8.281543732E0,5.305551052E0
3.443422502E0,-2.355894566E0,8.250418663E0,7.422025204E-1
3.445396806E0,1.800439715E0,9.026140213E0,-5.710171223E0
3.447463925E0,2.406172752E0,9.504981041E0,-7.517793179E0
3.448681729E0,1.841141105E0,1.092474270E1,-1.011071396E1
3.451534579E0,-3.591302633E-1,1.261744308E1,-1.134372807E1
3.452812844E0,-2.633621931E0,1.172201157E1,-1.319683933E1
3.455638694E0,-6.464344501E0,8.439560890E0,-1.672110558E1
3.457203306E0,-1.103487587E1,9.583989143E0,-1.363737297E1
3.459626690E0,-1.499967384E1,9.907206535E0,-1.042674828E1
3.461054229E0,-1.931641960E1,9.801861763E0,-6.773196697E0
3.463849425E0,-2.408566856E1,9.315838814E0,-2.142810583E0
3.465555190E0,-2.709996986E1,8.841787338E0,1.912967205E0
3.467321229E0,-2.596990585E1,9.933543205E0,7.635109425E0
3.469125498E0,-2.002749634E1,1.047942066E1,1.165736771E1
3.471567229E0,-1.146104336E1,9.947908401E0,1.374032402E1
3.473161306E0,-2.765302896E0,7.915230751E0,1.448970890E1
3.475676190E0,5.940014362E0,5.099649429E0,1.376665974E1
3.477260806E0,1.404678154E1,4.355052948E0,1.364455509E1
3.479623652E0,1.914164352E1,5.779603004E0,1.386961079E1
3.481361690E0,1.928050613E1,7.098807812E0,1.216015053E1
3.484270886E0,1.478419590E1,7.766790390E0,8.767566681E0
3.485575844E0,7.953537941E0,9.287108421E0,6.663063526E0
3.487751344E0,1.268926859E0,1.052012253E1,5.463568211E0
3.489448383E0,-4.843470097E0,1.024000072E1,3.567360640E0
3.491910536E0,-9.964667320E0,9.404424667E0,1.089361787E0
3.493542344E0,-1.287601662E1,9.457097054E0,-1.005564690E0
3.495920229E0,-1.323993587E1,1.141315937E1,-1.154005170E0
3.497653652E0,-1.231098557E1,1.309867764E1,-5.554547906E-1
3.500075498E0,-1.142513084E1,1.256955910E1,-3.136404157E-1
3.501825075E0,-1.016817474E1,1.074996567E1,4.596867263E-1
3.504690309E0,-7.153874874E0,9.124302864E0,2.169146776E0
3.506185921E0,-3.495534360E-1,7.608773232E0,4.436455727E0
3.508757232E0,1.335964561E0,7.187393665E0,4.690241337E0
3.509886498E0,2.844311714E0,6.715735912E0,4.912901878E0
3.512794959E0,2.197877169E0,7.405265808E0,5.700594425E0
3.513989806E0,-1.948880196E0,9.485827446E0,8.621520042E0
3.516931386E0,-5.418078423E0,9.979032516E0,1.030224991E1
3.518091459E0,-7.137115479E0,1.007958889E1,1.144667816E1
3.521002113E0,-6.258443356E0,9.409213066E0,1.136527538E1
3.522240421E0,-3.976768970E0,7.891288757E0,9.842563629E0
3.525139924E0,-1.896207690E0,6.514622688E0,8.025363922E0
3.526840267E0,-9.074024558E-1,6.737283707E0,6.976703644E0
3.529144959E0,-1.532289028E0,8.695740700E0,6.428431511E0
3.530307113E0,-4.307168961E0,1.067095661E1,5.082890034E0
3.533252847E0,-7.824251175E0,1.169088650E1,3.023876667E0
3.534423306E0,-9.449913979E0,1.193270111E1,1.331176162E0
3.537348459E0,-8.303091049E0,1.128866100E1,3.854664862E-1
3.538546613E0,-5.777208805E0,9.890447617E0,-6.799532771E-1
3.541233190E0,-3.667917013E0,9.057265282E0,-1.900996208E0
3.542823113E0,-2.865859509E0,9.677363396E0,-3.078943491E0
3.545567309E0,-3.514688015E0,1.141076565E1,-3.687070608E0
3.547224306E0,-5.896918774E0,1.260068321E1,-3.038241863E0
3.548990959E0,-6.275202751E0,1.222239971E1,-2.267308950E0
3.550812998E0,-5.360617638E0,1.057758331E1,1.628057212E-1
3.553271882E0,-2.255337954E0,8.456320763E0,3.035847664E0
3.554922075E0,1.651999116E0,6.813898087E0,5.595249176E0
3.557323036E0,4.386177540E0,5.712565422E0,7.489062786E0
3.559009690E0,5.097255230E0,4.644751072E0,8.892065048E0
3.561383036E0,4.146757126E0,4.951209068E0,1.146583176E1
3.563134382E0,1.762132406E0,6.596025467E0,1.505234623E1
3.566050232E0,-3.593696833E0,7.053318024E0,1.634042740E1
3.567284652E0,-6.153098583E0,6.081272125E0,1.433408546E1
3.569730652E0,-6.284779549E0,5.726930618E0,1.200452709E1
3.571353498E0,-4.819528103E0,6.744466305E0,1.060152531E1
3.573790229E0,-3.792415380E0,8.030152321E0,9.109937668E0
3.575454921E0,-3.991134167E0,8.966285706E0,6.809109688E0
3.577815690E0,-4.575319290E0,1.003888798E1,4.383783340E0
3.579554882E0,-4.129997730E0,1.162624359E1,2.535459518E0
3.582012113E0,-2.497152328E0,1.300051498E1,9.888052940E-1
3.583667613E0,-4.548983276E-1,1.262462521E1,-7.781155705E-1
3.586594501E0,1.843535304E0,1.038125896E1,-2.827552319E0
3.588102921E0,4.199429989E0,8.245630264E0,-4.125209332E0
3.590671116E0,5.284003258E0,8.123526573E0,-4.244919777E0
3.591793806E0,3.586514235E0,1.001015759E1,-3.801992416E0
3.594700229E0,-6.847416759E-1,1.238999367E1,-3.332728863E0
3.595906575E0,-5.461174011E0,1.382412052E1,-2.475604534E0
3.598842924E0,-8.640673637E0,1.342189503E1,-9.289502501E-1
3.600009036E0,-9.504981041E0,1.142513084E1,9.289502501E-1
3.602917113E0,-8.394071579E0,9.050082207E0,2.351106167E0
3.604130844E0,-6.153098583E0,8.054094315E0,3.339911461E0
3.607051386E0,-4.053383350E0,8.693346024E0,4.120420933E0
3.608795421E0,-3.191470861E0,9.394847870E0,5.200206280E0
3.611069882E0,-3.284844637E0,8.856152534E0,5.676652431E0
3.612219382E0,-2.746149302E0,6.871358871E0,7.151480675E0
3.615168001E0,-5.003881454E-1,5.063736439E0,9.485827446E0
3.616328459E0,2.810792685E0,4.180276394E0,1.184650993E1
3.619250229E0,5.693411827E0,4.402936935E0,1.305318737E1
3.620533575E0,4.398148537E0,5.449203014E0,1.321120453E1
3.623123344E0,1.323993564E0,6.093243122E0,1.327584839E1
3.624555152E0,-1.991975784E0,5.973533154E0,1.325430107E1
3.627481886E0,-4.228160381E0,5.403713226E0,1.251449203E1
3.629060959E0,-4.790797710E0,4.948814869E0,1.027591324E1
3.630899729E0,-4.110844135E0,5.102043629E0,6.358999729E0
3.632698190E0,-3.371036053E0,5.944802761E0,1.675941229E0
3.635199690E0,-3.801992416E0,7.362170219E0,-2.149993181E0
3.636815613E0,-5.698200226E0,8.971074104E0,-4.053383350E0
3.639257344E0,-7.960720539E0,1.068532181E1,-4.505887508E0
3.640965190E0,-9.464279175E0,1.262701988E1,-4.448426723E0
3.643296652E0,-9.610325813E0,1.366610336E1,-5.085284233E0
3.645074382E0,-7.766790390E0,1.259350109E1,-6.991068840E0
3.647955693E0,-3.864241600E0,9.945513725E0,-8.667010307E0
3.649314152E0,9.672574997E-1,7.738059998E0,-8.379706383E0
3.651561536E0,4.134786129E0,7.831433773E0,-5.631162167E0
3.653433959E0,3.567360640E0,9.440337181E0,-2.011129379E0
3.655682036E0,-4.548983276E-1,1.051054573E1,3.136404157E-1
3.657378805E0,-5.269638062E0,1.062067890E1,2.102109194E0
3.659739267E0,-7.654263020E0,1.035252857E1,4.704606533E0
3.661467229E0,-6.955155849E0,1.003170490E1,8.008605003E0
3.664022921E0,-4.941632271E0,9.114726067E0,1.040520096E1
3.665950536E0,-3.564966440E0,6.335057735E0,9.296685219E0
3.668510693E0,-4.738125324E0,4.900930882E0,7.431602001E0
3.670104075E0,-6.411672115E0,4.010287762E0,6.196194172E0
3.672588962E0,-7.003039837E0,4.812345505E0,6.909666061E0
3.673818498E0,-6.531382084E0,7.321468830E0,9.428366661E0
3.676657385E0,-6.356605530E0,8.829815865E0,1.114979744E1
3.677971998E0,-7.048529625E0,8.240841866E0,1.148738003E1
3.680760578E0,-7.218518257E0,6.794744492E0,1.162145519E1
3.681927575E0,-5.916072369E0,5.755661011E0,1.198297977E1
3.684835459E0,-4.264073372E0,5.255272865E0,1.189678860E1
3.686046036E0,-2.552218914E0,4.678270340E0,9.837775230E0
3.688968501E0,-2.537853718E-1,4.623203278E0,6.026205540E0
3.690649152E0,1.747767210E0,5.781997204E0,2.267308950E0
3.692973767E0,1.771709204E0,7.307103634E0,-4.453215301E-1
3.694135690E0,-2.753331959E-1,8.813055992E0,-1.419761658E0
3.697080347E0,-3.521870613E0,1.062546730E1,-4.860229492E-1
3.698237844E0,-7.177816868E0,1.165497398E1,4.764461517E-1
3.701163767E0,-1.016578007E1,1.099417400E1,-1.244984865E-1
3.702354652E0,-1.083855152E1,8.858546257E0,-1.989581585E0
3.705083729E0,-8.111555099E0,7.268796444E0,-3.282450438E0
3.706534921E0,-3.861847401E0,8.183381081E0,-2.183511972E0
3.709394539E0,-1.685518026E0,9.998186111E0,1.149216816E-1
3.710915844E0,-3.732560396E0,9.765948296E0,6.488286853E-1
3.712788075E0,-4.900930882E0,9.493009567E0,6.536170840E-1
3.714586921E0,-6.323086739E0,1.015620327E1,2.025494576E0
3.717083459E0,-6.172252178E0,1.174116516E1,4.556165695E0
3.718703998E0,-5.248090267E0,1.183214474E1,5.815515995E0
3.721131075E0,-3.708618402E0,7.180211067E0,2.817975283E0
3.722833075E0,-2.626439333E0,3.940855980E0,1.053448766E-1
3.725199805E0,-1.951274395E0,3.392583847E0,-9.097966552E-1
3.726935767E0,-2.305616140E0,6.433219910E0,4.525041282E-1
3.729859424E0,-4.422090530E0,1.168609810E1,3.790021181E0
3.731163228E0,-7.927201748E0,1.410663605E1,6.327875137E0
3.733345075E0,-1.058476543E1,1.167652130E1,7.587224960E0
3.735095075E0,-9.971850395E0,6.481103897E0,9.387664795E0
3.737445075E0,-5.748478413E0,2.140416384E0,1.233732128E1
3.739129882E0,-3.471592367E-1,1.285686255E0,1.510980701E1
3.741534575E0,2.858676910E0,2.480392933E0,1.436760426E1
3.743266305E0,1.261744261E0,3.912125587E0,9.830592155E0
3.745742767E0,-3.881000996E0,5.841852188E0,6.119579315E0
3.747350113E0,-8.920795441E0,8.042123795E0,6.598419666E0
3.750281770E0,-1.115458584E1,9.081207275E0,9.959878922E0
3.751786305E0,-1.040041256E1,8.140285492E0,1.219606304E1
3.754349577E0,-7.503427982E0,6.347028732E0,1.107318306E1
3.755469652E0,-3.284844637E0,6.248866558E0,7.893682957E0
3.758375613E0,6.057330370E-1,7.994239330E0,5.312733650E0
3.759563190E0,2.142810583E0,9.471462250E0,3.878606796E0
3.762523382E0,1.029506683E0,1.047702694E1,3.792415380E0
3.763680228E0,-1.831564307E0,1.180341434E1,4.115632534E0
3.766586690E0,-5.099649429E0,1.345541382E1,3.114856482E0
3.767810536E0,-7.378929615E0,1.428380775E1,8.619125932E-2
3.770734847E0,-7.642292023E0,1.269405746E1,-4.089296341E0
3.772406959E0,-3.667917013E0,7.216124058E0,-7.618350029E0
3.774746113E0,-1.927332401E0,6.023811340E0,-7.350199223E0
3.775913613E0,-1.340752989E-1,6.806715488E0,-4.675876141E0
3.778849808E0,-5.035006046E0,1.315135002E1,-5.123591423E-1
3.780001421E0,-1.106360626E1,1.493742466E1,-6.631938815E-1
3.782914498E0,-1.463336086E1,1.257913589E1,-7.517793179E-1
3.784120459E0,-1.245942593E1,7.613561630E0,1.371877551E0
3.786835613E0,-5.329493046E0,3.849876404E0,5.798756599E0
3.788290305E0,1.862688899E0,3.057395458E0,1.022563553E1
3.791165077E0,4.106055737E0,3.816357613E0,1.136288166E1
3.792816882E0,6.512228847E-1,4.673481941E0,9.133879662E0
3.794583882E0,-5.755661011E0,5.195417881E0,7.431602001E0
3.796388959E0,-1.087685871E1,5.595249176E0,9.837775230E0
3.798840421E0,-1.219127464E1,6.849811077E0,1.548809052E1
3.800488459E0,-1.071644688E1,8.336610794E0,1.994609451E1
3.802909344E0,-8.987833023E0,8.101978302E0,1.921346855E1
3.804596498E0,-7.536946774E0,6.030993938E0,1.443464184E1
3.806957075E0,-4.975151062E0,4.479551315E0,1.062307262E1
3.808639228E0,-1.359906554E0,5.070919037E0,1.092953110E1
3.811578923E0,9.792284966E-1,6.806715488E0,1.316332054E1
3.812794652E0,1.580173075E-1,7.469909191E0,1.232774448E1
3.815117767E0,-3.107673883E0,6.418854713E0,6.291962147E0
3.816893690E0,-6.277596951E0,5.142745018E0,-2.190694571E0
3.819295575E0,-7.575253963E0,5.748478413E0,-8.188169479E0
3.820970113E0,-8.080430984E0,9.552865028E0,-9.066842079E0
3.823338498E0,-1.029267311E1,1.530373764E1,-6.473921299E0
3.825096651E0,-1.475067711E1,1.954865646E1,-4.910507679E0
3.827495998E0,-1.957020378E1,1.763808441E1,-7.831433773E0
3.829201344E0,-1.579694271E1,1.143470764E1,-9.562441826E0
3.832128269E0,-5.284003258E0,7.060500622E0,-6.459556103E0
3.833738728E0,7.077260017E0,6.473921299E0,-4.141969085E-1
3.836207885E0,1.397256088E1,6.469132900E0,2.499546528E0
3.837332344E0,1.135809326E1,5.125985622E0,1.103726983E0
3.840240844E0,2.468421936E0,2.825158119E0,-4.309563041E-1
3.841437805E0,-5.856217384E0,2.643198729E0,2.671929121E0
3.844383115E0,-1.068771648E1,5.968744755E0,1.071405220E1
3.845556882E0,-1.347456741E1,9.555258751E0,1.780088997E1
3.848480767E0,-1.514811420E1,1.046505547E1,1.903869247E1
3.849698882E0,-1.472912884E1,8.552088737E0,1.525585365E1
3.852593692E0,-1.116895103E1,5.085284233E0,1.058237171E1
3.854365267E0,-2.968810081E0,3.344699860E0,9.856928825E0
3.856626459E0,-7.422025204E-1,3.955221176E0,1.060152531E1
3.857775459E0,1.228225470E0,5.061342239E0,9.634267807E0
3.860724423E0,-2.394201756E-1,4.149151325E0,3.579331636E0
3.861876459E0,-2.896984100E0,1.742978811E0,-5.379771233E0
3.864780267E0,-4.450820923E0,2.164358377E0,-1.077151299E1
3.866016690E0,-5.872976780E0,8.058882713E0,-8.511386871E0
3.868676498E0,-9.892841339E0,1.577300072E1,-3.110068083E0
3.870115382E0,-1.655111694E1,1.919192123E1,-1.266532660E0
3.873041192E0,-2.155260277E1,1.666124916E1,-3.919308186E0
3.874608498E0,-1.558864689E1,9.773131371E0,-5.590460777E0
3.876449805E0,-9.792284966E0,8.712499619E0,-3.885789394E0
3.878256536E0,3.653551817E0,8.406042099E0,1.041477680E0
3.880711075E0,1.384088039E1,7.728483200E0,3.610456228E0
3.882360767E0,1.359427738E1,2.130839586E0,3.830722570E-1
3.884789959E0,7.347805023E0,-3.902548850E-1,-5.267243832E-2
3.886461921E0,1.625662923E0,2.995146275E0,5.875370979E0
3.888845844E0,-4.027047157E0,9.904812813E0,1.495178986E1
3.890585613E0,-1.042914295E1,1.378820801E1,1.965400124E1
3.893517769E0,-1.534443855E1,1.219366932E1,1.743218231E1
3.894765421E0,-1.589749908E1,8.209717751E0,1.314656162E1
3.897317921E0,-1.212184334E1,5.805939198E0,1.170764637E1
3.898819575E0,-6.507440090E0,5.801150799E0,1.232774448E1
3.901241382E0,-1.927332401E0,5.918466568E0,1.036689377E1
3.902919998E0,4.429273009E-1,3.981557369E0,3.452438831E0
3.905310036E0,2.260126352E0,1.345541358E0,-5.963956356E0
3.907015267E0,4.546588898E0,2.846705914E0,-1.107078838E1
3.909432498E0,5.157110691E0,8.995016098E0,-9.385271072E0
3.911158421E0,3.184288144E-1,1.537556362E1,-5.152322292E0
3.914061961E0,-8.913613319E0,1.713290787E1,-3.775655985E0
3.915639844E0,-1.938824463E1,1.181777954E1,-7.290344238E0
3.918142961E0,-1.958456993E1,1.047463226E1,-7.357381821E0
3.919265113E0,-1.481771469E1,1.070447540E1,-3.952826977E0
3.922170575E0,-6.167463779E0,1.251449203E1,8.810662031E-1
3.923370459E0,1.005564690E0,1.059913063E1,1.984793186E0
3.926317923E0,4.297592163E0,3.634398222E0,-9.169792533E-1
3.927473844E0,5.451597214E0,-1.946485996E0,-1.668758631E0
3.930394651E0,4.498704910E0,2.269703150E0,9.035717010E0
3.931614613E0,5.267243832E-2,8.638279915E0,1.689348793E1
3.934528269E0,-6.847416878E0,1.105642319E1,1.819832802E1
3.936274074E0,-1.259110641E1,8.789113998E0,1.429817295E1
3.938537536E0,-1.399410915E1,6.002263546E0,1.113543224E1
3.939683651E0,-1.205001736E1,5.925649166E0,1.176031876E1
3.942639846E0,-9.646238327E0,6.438008308E0,1.206917095E1
3.943798998E0,-7.955932140E0,4.793191910E0,7.316680431E0
3.946705613E0,-5.916072369E0,2.422932148E0,-1.470039845E0
3.947915459E0,-3.059789658E0,3.117250681E0,-8.937555313E0
3.950596882E0,-8.619126081E-1,7.898471355E0,-1.033098030E1
3.952042421E0,-1.163581967E0,1.301727486E1,-7.400477409E0
3.954954654E0,-4.695029736E0,1.496615505E1,-4.668693542E0
3.956560228E0,-9.928754807E0,1.304600525E1,-4.718971729E0
3.958378574E0,-1.350090313E1,1.024478912E1,-6.421248913E0
3.960189959E0,-1.269166279E1,1.103726959E1,-5.398924828E0
3.962662882E0,-7.946355343E0,1.419282722E1,-1.276109457E0
3.964287767E0,-2.580949545E0,1.300290966E1,1.204283476E0
3.966720036E0,1.647210717E0,4.869806290E0,-3.184288144E-1
3.968439228E0,5.226542473E0,-2.643198729E0,-1.067813993E0
3.970763459E0,7.000645638E0,-8.714894056E-1,5.262455463E0
3.972534921E0,4.417302132E0,7.603984833E0,1.493024158E1
3.975443500E0,-3.342305660E0,1.296460247E1,1.917755508E1
3.976713613E0,-1.581849098E1,9.167398453E0,1.611537170E1
3.978903998E0,-1.716642570E1,7.340622425E0,1.578257751E1
3.980600651E0,-1.519599819E1,6.265625954E0,1.841619873E1
3.983019344E0,-1.077869606E1,6.165069580E0,2.056619263E1
3.984708998E0,-7.460332394E0,3.531447411E0,1.615846634E1
3.987097036E0,-3.620033026E0,-4.333505034E-1,1.412579060E0
3.988813074E0,-7.924807668E-1,2.336740971E0,-5.635950565E0
3.991236151E0,3.351882473E-2,8.473079681E0,-7.113173485E0
3.992938690E0,-2.940079689E0,1.421676922E1,-4.671087742E0
3.995864269E0,-8.511386871E0,1.591186428E1,-3.045424461E0
3.997361728E0,-1.436760426E1,1.358470058E1,-4.594472885E0
3.999934538E0,-1.777455330E1,1.170764637E1,-6.555324078E0
4.001058882E0,-1.692461205E1,1.353202820E1,-5.930437565E0
4.003967074E0,-1.224873543E1,1.594777775E1,-3.564966440E0
4.005158113E0,-6.332663536E0,1.265335560E1,-3.280056238E0
4.008109538E0,-7.302315235E-1,4.127603531E0,-4.838681698E0
4.009260421E0,4.939238071E0,-8.427590132E-1,-2.837129116E0
4.012176036E0,8.564059258E0,2.975992680E0,5.427655220E0
4.013384690E0,6.933608055E0,9.361329079E0,1.388636971E1
4.016319730E0,4.716577232E-1,1.042435455E1,1.619677544E1
4.018014459E0,-7.728483200E0,3.967192173E0,1.428380775E1
4.020337382E0,-7.987056732E0,2.566584110E0,1.485123348E1
4.021639651E0,-5.813121796E0,3.043030262E0,1.806664658E1
4.024432038E0,-3.739742994E0,4.709394932E0,1.885194397E1
4.025582998E0,-4.177882195E0,3.960009575E0,1.299093819E1
4.028497305E0,-5.492298603E0,1.477222443E0,2.885013103E0
4.029688844E0,-5.051765442E0,1.352723956E0,-5.171475887E0
4.032389305E0,-3.093308687E0,6.191405773E0,-6.258443356E0
4.033826998E0,-2.561795712E0,1.309628296E1,-2.336740971E0
4.036748499E0,-5.209783077E0,1.600045013E1,-4.644751251E-1
4.038390767E0,-1.143949604E1,9.892841339E0,-6.785167694E0
4.040170844E0,-1.190157700E1,6.531382084E0,-1.051533413E1
4.041981728E0,-8.157045364E0,9.473855972E0,-8.209717751E0
4.044437382E0,-2.554613113E0,1.383369732E1,-4.197035789E0
4.046082459E0,1.113303781E0,1.224634171E1,-4.996698856E0
4.048491805E0,2.750937700E0,5.023035049E0,-8.932766914E0
4.050205305E0,5.310339451E0,-5.578489900E-1,-9.308655739E0
4.052579767E0,8.504204750E0,1.687912226E0,-1.948880196E0
4.054329497E0,7.943961143E0,8.892065048E0,9.124302864E0
4.057232384E0,1.302445769E0,1.232056236E1,1.436760426E1
4.058449113E0,-7.886500359E0,8.690952301E0,1.179623222E1
4.060778074E0,-1.338837624E1,3.258508444E0,8.475474358E0
4.062513805E0,-1.238999367E1,2.456450939E0,1.032619190E1
4.064972459E0,-7.639897823E0,6.098031521E0,1.496136665E1
4.066612921E0,-4.091690540E0,8.317456245E0,1.518163300E1
4.069000690E0,-3.368641853E0,5.566518784E0,7.996633530E0
4.070730536E0,-2.935291290E0,9.337386489E-1,-1.572990537E0
4.073150728E0,-4.979939461E-1,1.173158884E0,-4.570530891E0
4.074854344E0,2.497152328E0,7.170634270E0,3.184288144E-1
4.077776768E0,1.975216389E0,1.309867764E1,5.334281445E0
4.079274421E0,-7.682993412E0,1.343626022E1,2.451662540E0
4.081854268E0,-1.139879417E1,1.170525169E1,-2.920926213E-1
4.082976382E0,-1.521036339E1,8.597578049E0,-3.725377798E0
4.085885997E0,-1.270842266E1,8.990227699E0,-1.472434044E0
4.087081151E0,-6.136339188E0,1.117613316E1,2.971204281E0
4.090028076E0,2.226607561E0,9.090784073E0,1.999158382E0
4.091187882E0,4.532223701E0,4.465186119E0,-2.731784105E0
4.094087728E0,5.190629482E0,1.891419291E0,-4.125209332E0
4.095303805E0,4.647145271E0,4.127603531E0,9.816226959E-1
4.098236576E0,1.517923832E0,9.773131371E0,8.738836288E0
4.099982805E0,-5.444414616E0,1.412818432E1,1.305079365E1
4.102250728E0,-1.419761562E1,1.384806252E1,1.153286934E1
4.104060497E0,-1.952950287E1,1.039801788E1,8.506598473E0
4.106352614E0,-1.782243729E1,7.453149796E0,8.492233276E0
4.107506151E0,-1.033816338E1,7.340622425E0,1.189918232E1
4.110457268E0,-1.862688899E0,8.444349289E0,1.420719242E1
4.111606959E0,3.050212860E0,7.900865555E0,1.089840603E1
4.114291882E0,3.804386616E0,4.726154327E0,2.863465309E0
4.115740997E0,3.311181068E0,1.965639591E0,-3.119644880E0
4.118666268E0,3.483563423E0,3.363853455E0,-1.946485996E0
4.120739959E0,-5.698199868E-1,1.119528675E1,4.568136692E0
4.122035382E0,-4.376600742E0,1.357512379E1,4.960785866E0
4.123839421E0,-1.405396366E1,1.622550583E1,1.836352706E0
4.126217882E0,-2.185906219E1,1.608424759E1,-2.458845139E0
4.127945882E0,-2.284068489E1,1.349611473E1,-3.181894064E0
4.130448382E0,-1.598608494E1,1.016099167E1,-3.351882473E-2
4.132069382E0,-4.733336926E0,8.159439087E0,4.000710964E0
4.134426459E0,5.109226227E0,7.721300602E0,4.843470097E0
4.136187728E0,9.191340446E0,7.393294811E0,1.424550056E0
4.139104153E0,7.412448406E0,6.394912720E0,-1.996764183E0
4.140255421E0,3.392583847E0,5.638344765E0,-3.950432837E-1
4.142636036E0,-1.915361360E-2,5.928043365E0,5.465962410E0
4.144408497E0,-3.124433279E0,7.386112213E0,1.109712505E1
4.146818997E0,-8.805873871E0,8.875306129E0,1.206677628E1
4.148433690E0,-1.141076565E1,7.762001991E0,8.643068314E0
4.150792267E0,-1.111149025E1,5.664681435E0,6.291962147E0
4.152571497E0,-7.963114738E0,3.897760391E0,6.845022678E0
4.154936844E0,-3.689464808E0,3.818751812E0,8.451532364E0
4.156641767E0,-6.512228847E-1,5.391742229E0,7.592013359E0
4.159570076E0,-4.309562966E-2,7.129932880E0,2.296039343E0
4.161142959E0,-1.482010841E0,7.797914982E0,-4.797980309E0
4.163650537E0,-3.459621429E0,7.168240070E0,-9.026140213E0
4.164763267E0,-4.359841347E0,6.502651691E0,-8.532935143E0
4.167679690E0,-4.659116745E0,7.278373241E0,-5.633556366E0
4.168888613E0,-5.753266811E0,9.203310966E0,-4.302380562E0
4.171824037E0,-7.390900612E0,1.148019695E1,-5.822698593E0
4.172979459E0,-7.809885979E0,1.268926907E1,-7.795520782E0
4.175906190E0,-5.901707172E0,1.175792408E1,-6.789956093E0
4.177113074E0,-1.903390408E0,8.808267593E0,-2.827552319E0
4.180033499E0,2.456450939E0,5.307945251E0,9.385270476E-1
4.181700267E0,5.664681435E0,3.050212860E0,1.268926859E0
4.184025651E0,5.516240597E0,3.541024208E0,2.082955539E-1
4.185205690E0,3.569754839E0,5.803544998E0,-1.458068848E0
4.188143768E0,1.915361285E-1,8.149862289E0,-6.847416759E-1
4.189320344E0,-3.263296843E0,9.018958092E0,2.516305923E0
4.192219805E0,-5.808333397E0,7.996633530E0,5.916072369E0
4.193417497E0,-7.237671852E0,6.461950302E0,7.592013359E0
4.196098882E0,-7.750030994E0,6.370970726E0,7.661445618E0
4.197525959E0,-7.603984833E0,7.910442352E0,7.113173485E0
4.200459306E0,-7.445967197E0,9.945513725E0,8.549694061E0
4.201968690E0,-7.548917770E0,9.234436035E0,1.081221485E1
4.203903036E0,-6.809109688E0,7.467514992E0,1.235886955E1
4.205692382E0,-4.613626480E0,5.705382824E0,1.176750088E1
4.208112190E0,-1.048660398E0,5.013458252E0,9.562441826E0
4.209762036E0,2.870647907E0,5.674258232E0,7.050923824E0
4.212189267E0,4.920084476E0,6.806715488E0,5.348646641E0
4.213862036E0,3.533841610E0,6.854599476E0,4.611232281E0
4.216280036E0,-7.134721279E-1,5.693411827E0,3.960009575E0
4.218006420E0,-5.863399982E0,5.178658485E0,2.892195702E0
4.220920729E0,-1.021366405E1,7.182605267E0,1.513135433E0
4.222197574E0,-1.269645119E1,1.130781460E1,5.746084079E-2
4.224398074E0,-1.337640476E1,1.460463047E1,-1.316810966E0
4.226083267E0,-1.277067184E1,1.468603325E1,-1.592144132E0
4.228521536E0,-1.011310768E1,1.180580902E1,-5.123591423E-1
4.230197997E0,-5.073313236E0,8.207323074E0,1.211466074E0
4.232590651E0,1.127668977E0,5.762843609E0,2.063801765E0
4.234300459E0,6.840234280E0,5.169081688E0,1.065419793E0
4.236722190E0,1.027830791E1,6.229712963E0,-6.320692301E-1
4.238418305E0,9.440337181E0,7.661445618E0,-8.044517636E-1
4.241339883E0,3.909731388E0,8.398859978E0,1.419761658E0
4.242825690E0,-8.480262756E0,9.165003777E0,6.734889507E0
4.245407845E0,-1.224394703E1,9.330204010E0,7.955932140E0
4.246539113E0,-1.706347466E1,9.200917244E0,8.767566681E0
4.249442651E0,-1.663970184E1,8.765172005E0,8.192957878E0
4.250635113E0,-1.142991924E1,8.192957878E0,7.750030994E0
4.253583652E0,-4.855441093E0,6.897695065E0,8.075642586E0
4.254749574E0,8.499416113E-1,3.603273630E0,8.571242332E0
4.257654497E0,9.504981041E-1,2.762908697E0,7.848193169E0
4.258870613E0,-1.118092179E0,4.225766182E0,6.361393929E0
4.261793345E0,-3.988739967E0,7.053318024E0,4.340687752E0
4.263464613E0,-6.165069580E0,9.514557838E0,2.329558372E0
4.265807036E0,-7.216124058E0,1.062307262E1,8.188169599E-1
4.266982920E0,-7.881711960E0,1.051054573E1,-1.675941236E-2
4.269907229E0,-8.568847656E0,9.928754807E0,-7.876923680E-1
4.271117190E0,-8.537723541E0,9.416395187E0,-2.109291792E0
4.273981074E0,-6.555324078E0,9.414001465E0,-3.593696833E0
4.275166382E0,-2.387019157E0,1.018493366E1,-3.687070608E0
4.277857228E0,2.346317768E0,1.090319443E1,-1.790862918E0
4.279307574E0,5.547365189E0,1.043632507E1,1.347935557E0
4.282221883E0,6.181828976E0,8.750806808E0,4.587290287E0
