"Time (s)","Gyroscope x (rad/s)","Gyroscope y (rad/s)","Gyroscope z (rad/s)"
7.949923000E-3,-8.149272949E-2,5.326322280E-4,-1.235706806E-1
1.010701500E-2,-8.149272949E-2,5.326322280E-4,-1.235706806E-1
1.126296200E-2,-8.149272949E-2,5.326322280E-4,-1.235706806E-1
1.417463000E-2,-8.149272949E-2,5.326322280E-4,-1.235706806E-1
1.538223100E-2,-8.149272949E-2,5.326322280E-4,-1.235706806E-1
1.827705300E-2,-8.149272949E-2,5.326322280E-4,-1.235706806E-1
1.953457700E-2,-8.149272949E-2,5.326322280E-4,-1.235706806E-1
2.221488500E-2,-8.149272949E-2,5.326322280E-4,-1.235706806E-1
2.362446200E-2,-8.149272949E-2,5.326322280E-4,-1.235706806E-1
2.648209200E-2,-8.149272949E-2,5.326322280E-4,-1.235706806E-1
2.808834700E-2,-8.149272949E-2,5.326322280E-4,-1.235706806E-1
2.993134700E-2,-8.149272949E-2,5.326322280E-4,-1.235706806E-1
3.175900000E-2,-8.149272949E-2,5.326322280E-4,-1.235706806E-1
3.423261600E-2,-8.149272949E-2,5.326322280E-4,-1.235706806E-1
3.603169300E-2,-8.149272949E-2,5.326322280E-4,-1.235706806E-1
3.828727000E-2,-8.149272949E-2,5.326322280E-4,-1.235706806E-1
3.995034700E-2,-2.567287385E-1,-1.608549356E-1,-1.406149119E-1
4.232150000E-2,-2.977414131E-1,-2.135855258E-1,-5.539375171E-2
4.408161600E-2,-2.524676621E-1,-1.970739216E-1,1.012001187E-2
4.694401500E-2,-1.432780623E-1,-1.272991002E-1,4.207794741E-2
4.836411600E-2,-2.450108156E-2,-3.142530099E-2,4.261057824E-2
5.049142300E-2,6.391586363E-2,8.841694891E-2,1.864212751E-2
5.215207700E-2,9.321063757E-2,1.906823367E-1,-1.917476021E-2
5.456900000E-2,7.616640627E-2,2.663161159E-1,-7.563377917E-2
5.626665400E-2,3.728425503E-2,2.300971150E-1,-1.177117229E-1
5.863142300E-2,1.597896684E-3,1.086569726E-1,-1.400822699E-1
6.036623100E-2,-8.522115648E-3,-3.994741663E-2,-1.336906850E-1
6.276103900E-2,1.704423130E-2,-1.725728363E-1,-8.468852192E-2
6.449661600E-2,5.858954415E-2,-2.396845073E-1,5.326322280E-3
6.735493800E-2,9.267801046E-2,-1.992044598E-1,9.214537591E-2
6.887338500E-2,1.209075153E-1,-7.669904083E-2,1.464738697E-1
7.142197600E-2,1.262338310E-1,5.592638254E-2,1.443433315E-1
7.259550000E-2,1.075917110E-1,1.581917703E-1,9.108011425E-2
7.549074500E-2,5.592638254E-2,1.699096859E-1,1.704423130E-2
7.670315400E-2,-5.326322280E-3,1.171790883E-1,-6.072007492E-2
7.959359100E-2,-5.379585549E-2,1.118527725E-2,-1.155811921E-1
8.079042300E-2,-7.243798673E-2,-7.829693705E-2,-1.475391239E-1
8.369686100E-2,-6.977482140E-2,-1.118527651E-1,-1.358212233E-1
8.495115400E-2,-5.379585549E-2,-8.149272949E-2,-7.882957160E-2
8.779939900E-2,-4.154531285E-2,-5.326322280E-3,2.663161140E-3
8.985696200E-2,-3.195793182E-2,1.049285457E-1,1.027980223E-1
9.185297600E-2,-3.515372798E-2,1.257012039E-1,1.070590764E-1
9.314100000E-2,-5.006742850E-2,1.171790883E-1,7.882957160E-2
9.592147600E-2,-6.924218684E-2,4.793690145E-2,5.326322280E-4
9.713846200E-2,-6.977482140E-2,-2.716424316E-2,-9.800432622E-2
1.000245530E-1,-1.810949668E-2,-1.368864775E-1,-1.486043930E-1
1.012601930E-1,5.645901710E-2,-1.699096859E-1,-8.149272949E-2
1.041243460E-1,1.464738697E-1,-1.161138266E-1,2.290318534E-2
1.054401160E-1,2.269013226E-1,-3.462109342E-2,1.310275346E-1
1.082307840E-1,2.732403278E-1,6.604639441E-2,1.763012707E-1
1.099355000E-1,2.695119083E-1,1.597896665E-1,1.336906850E-1
1.117536160E-1,2.066612989E-1,2.024002522E-1,2.077265643E-2
1.135190770E-1,1.043959185E-1,1.704423130E-1,-1.054611802E-1
1.159768080E-1,-2.183792181E-2,8.522115648E-2,-1.864212751E-1
1.177012310E-1,-1.427454352E-1,-1.065264456E-2,-1.922802329E-1
1.200628460E-1,-2.300971150E-1,-1.038632840E-1,-1.331580579E-1
1.217997310E-1,-2.519350350E-1,-1.651159972E-1,-4.580637068E-2
1.241396930E-1,-2.008023560E-1,-1.848233789E-1,1.970739290E-2
1.258320390E-1,-9.161274135E-2,-1.464738697E-1,5.166532472E-2
1.287058990E-1,2.237055451E-2,-5.965480953E-2,5.219795927E-2
1.300243460E-1,9.800432622E-2,5.912217870E-2,2.876213938E-2
1.323464230E-1,1.150485575E-1,1.704423130E-1,-3.195793368E-3
1.340552700E-1,9.054747969E-2,2.450108230E-1,-5.060006306E-2
1.366247700E-1,4.740426689E-2,2.269013226E-1,-1.006674916E-1
1.382381930E-1,6.924218964E-3,1.171790883E-1,-1.304948926E-1
1.405457310E-1,-1.491370238E-2,-1.864212751E-2,-1.310275346E-1
1.422470770E-1,-6.924218964E-3,-1.432780623E-1,-8.948221803E-2
1.446784620E-1,1.225054078E-2,-2.087918371E-1,-5.858954508E-3
1.463638080E-1,5.060006306E-2,-1.400822699E-1,1.155811921E-1
1.492408990E-1,6.711166352E-2,-2.982740477E-2,1.480717659E-1
1.508680390E-1,6.018744037E-2,8.575379103E-2,1.219727769E-1
1.533148990E-1,3.089267015E-2,1.491370201E-1,6.285060197E-2
1.546036160E-1,-1.757686399E-2,1.315601617E-1,-1.225054078E-2
1.573830140E-1,-6.072007492E-2,6.551376730E-2,-7.776430249E-2
1.585822700E-1,-7.989483327E-2,-3.515372798E-2,-1.235706806E-1
1.614861300E-1,-6.391586363E-2,-9.267801046E-2,-1.406149119E-1
1.627453850E-1,-3.941478580E-2,-1.017327532E-1,-1.043959185E-1
1.655893220E-1,-2.237055451E-2,-4.314320907E-2,-3.355583176E-2
1.668272690E-1,-3.195793368E-3,3.728425503E-2,4.740426689E-2
1.696926680E-1,1.597896684E-3,9.587380290E-2,9.906959534E-2
1.715556160E-1,-6.391586736E-3,1.059938148E-1,6.977482140E-2
1.737368600E-1,-2.183792181E-2,7.669904083E-2,3.675162420E-2
1.749881540E-1,-3.994741663E-2,1.384843793E-2,-4.687163606E-2
1.778044760E-1,-4.420847446E-2,-5.699164793E-2,-1.150485575E-1
1.790234620E-1,-1.757686399E-2,-1.310275346E-1,-1.219727769E-1
1.819073220E-1,4.580637068E-2,-1.597896665E-1,-6.231797114E-2
1.832318080E-1,1.225054115E-1,-1.288969964E-1,2.982740477E-2
1.858962690E-1,1.965412945E-1,-6.604639441E-2,1.230380461E-1
1.873144620E-1,2.396845073E-1,4.101268202E-2,1.560612470E-1
1.901130140E-1,2.263686955E-1,1.507349163E-1,1.113201380E-1
1.916890390E-1,1.129180342E-1,2.018676102E-1,-4.261057824E-2
1.936843460E-1,5.805691332E-2,1.784317940E-1,-9.374327213E-2
1.954144620E-1,-5.752427876E-2,8.628641814E-2,-1.613875628E-1
1.978873850E-1,-1.645833552E-1,-1.970739290E-2,-1.683117896E-1
1.995295770E-1,-2.386192381E-1,-1.352885813E-1,-1.113201380E-1
2.021250770E-1,-2.279665917E-1,-2.210423797E-1,1.597896684E-3
2.039368080E-1,-1.272991002E-1,-1.986718178E-1,3.728425503E-2
2.060043850E-1,-2.130528912E-3,-1.241033077E-1,5.060006306E-2
2.077204620E-1,1.001348570E-1,0.000000000E0,4.048004746E-2
2.105672060E-1,1.496696621E-1,1.363538504E-1,1.651159860E-2
2.118424230E-1,1.432780623E-1,2.428802997E-1,-2.237055451E-2
2.141665390E-1,1.033306494E-1,2.732403278E-1,-7.190535218E-2
2.159226930E-1,5.006742850E-2,1.768338978E-1,-1.113201380E-1
2.184421540E-1,1.065264456E-2,3.195793182E-2,-1.390170157E-1
2.202190770E-1,-2.663161140E-3,-1.272991002E-1,-1.198422536E-1
2.224618460E-1,2.663161140E-3,-2.428802997E-1,-4.633900523E-2
2.241911160E-1,1.012001187E-2,-2.492718846E-1,4.687163606E-2
2.265860000E-1,2.183792181E-2,-1.608549356E-1,1.241033077E-1
2.282805770E-1,3.036003746E-2,-2.716424316E-2,1.523328125E-1
2.311128600E-1,2.237055451E-2,1.017327532E-1,1.177117229E-1
2.327901930E-1,-4.261057824E-2,1.667138934E-1,7.456851192E-3
2.351907830E-1,-7.350324839E-2,1.464738697E-1,-2.876213938E-2
2.365503080E-1,-1.182443574E-1,5.592638254E-2,-9.108011425E-2
2.392601290E-1,-1.304948926E-1,-5.805691332E-2,-1.267664731E-1
2.404837690E-1,-1.097222418E-1,-1.225054115E-1,-1.315601617E-1
2.433631680E-1,-7.616640627E-2,-1.448759735E-1,-8.628641814E-2
2.445896540E-1,-3.781688958E-2,-8.575379103E-2,-1.597896591E-2
2.474662060E-1,1.065264456E-3,1.384843793E-2,5.166532472E-2
2.487023460E-1,2.929477207E-2,8.948221803E-2,1.006674916E-1
2.515695910E-1,3.036003746E-2,1.235706806E-1,7.776430249E-2
2.533876930E-1,1.171790902E-2,6.604639441E-2,1.065264456E-2
2.556103600E-1,6.391586736E-3,-1.597896591E-2,-7.243798673E-2
2.568230390E-1,1.970739290E-2,-1.187769845E-1,-1.145159304E-1
2.596792450E-1,6.604639441E-2,-1.938781291E-1,-9.374327213E-2
2.609001160E-1,1.374191195E-1,-1.912149638E-1,-1.970739290E-2
2.637827450E-1,2.039981484E-1,-1.352885813E-1,8.149272949E-2
2.650417690E-1,2.482066154E-1,-2.290318534E-2,1.533980817E-1
2.676890770E-1,2.455434501E-1,1.070590764E-1,1.502022892E-1
2.691220000E-1,1.874865443E-1,1.981391907E-1,7.297061384E-2
2.719897450E-1,8.522115648E-2,2.066612989E-1,-4.687163606E-2
2.735293080E-1,-4.101268202E-2,1.390170157E-1,-1.518001854E-1
2.754643460E-1,-1.784317940E-1,1.917476021E-2,-1.986718178E-1
2.772965770E-1,-2.860234976E-1,-1.006674916E-1,-1.672465205E-1
2.797490390E-1,-3.350256681E-1,-2.066612989E-1,-8.894958347E-2
2.813922310E-1,-2.998719513E-1,-2.439455539E-1,-1.544633508E-2
2.838042310E-1,-1.821602285E-1,-2.226402760E-1,3.462109342E-2
2.855686540E-1,-3.515372798E-2,-1.299622655E-1,5.645901710E-2
2.879976160E-1,8.362326026E-2,8.522115648E-3,5.858954415E-2
2.897183080E-1,1.496696621E-1,1.518001854E-1,4.527373984E-2
2.924727060E-1,1.571265012E-1,2.466087192E-1,6.391586736E-3
2.938209230E-1,1.278317273E-1,2.476739883E-1,-5.539375171E-2
2.960573080E-1,9.853696078E-2,1.374191195E-1,-1.187769845E-1
2.976879230E-1,6.924218684E-2,-1.917476021E-2,-1.571265012E-1
3.001211540E-1,6.018744037E-2,-1.635181010E-1,-1.491370201E-1
3.019157690E-1,6.018744037E-2,-2.444781959E-1,-7.723167539E-2
3.042120000E-1,6.870955974E-2,-2.183792144E-1,2.237055451E-2
3.059361920E-1,7.563377917E-2,-1.214401498E-1,1.139832959E-1
3.083339620E-1,5.219795927E-2,6.657902896E-2,1.539307088E-1
3.100360770E-1,-5.326322280E-4,1.368864775E-1,1.091896072E-1
3.128843980E-1,-7.030745596E-2,1.177117229E-1,2.822950855E-2
3.144315390E-1,-1.374191195E-1,2.876213938E-2,-6.498113275E-2
3.169529370E-1,-1.699096859E-1,-8.149272949E-2,-1.363538504E-1
3.181873850E-1,-1.640507281E-1,-1.502022892E-1,-1.699096859E-1
3.210214370E-1,-1.278317273E-1,-1.555286050E-1,-1.368864775E-1
3.222592310E-1,-7.030745596E-2,-9.214537591E-2,-5.539375171E-2
3.251245140E-1,-2.663161140E-3,8.522115648E-3,4.367584363E-2
3.263358460E-1,5.379585549E-2,1.012001261E-1,1.145159304E-1
3.292281290E-1,8.468852192E-2,1.560612470E-1,1.241033077E-1
3.304843080E-1,7.936219871E-2,1.283643693E-1,7.936219871E-2
3.333307060E-1,4.900216311E-2,3.834952042E-2,-5.326322280E-4
3.351188850E-1,2.130528912E-2,-5.752427876E-2,-8.468852192E-2
3.373707060E-1,2.556634694E-2,-1.853560209E-1,-1.145159304E-1
3.385463850E-1,6.604639441E-2,-2.482066154E-1,-8.575379103E-2
3.414393600E-1,1.304948926E-1,-2.396845073E-1,-1.012001187E-2
3.426429620E-1,2.013349831E-1,-1.443433315E-1,7.723167539E-2
3.455422830E-1,2.338255495E-1,7.456851192E-3,1.219727769E-1
3.467944620E-1,2.295644879E-1,1.475391239E-1,9.960222989E-2
3.495127690E-1,1.747033745E-1,2.173139453E-1,1.917476021E-2
3.508904620E-1,5.592638254E-2,2.167813182E-1,-8.681905270E-2
3.537480520E-1,-8.415589482E-2,9.321063757E-2,-1.576591432E-1
3.554445000E-1,-2.652508616E-1,-1.358212233E-1,-1.715075821E-1
3.572383080E-1,-3.057309091E-1,-1.853560209E-1,-1.603222936E-1
3.590718080E-1,-3.131877482E-1,-2.668487430E-1,-1.129180342E-1
3.615318850E-1,-2.119876295E-1,-3.302319944E-1,-4.048004746E-2
3.631663080E-1,-5.060006306E-2,-2.812298238E-1,2.130528912E-2
3.655391160E-1,1.512675583E-1,9.054748341E-3,7.616640627E-2
3.672725390E-1,2.050634027E-1,1.699096859E-1,9.480853379E-2
3.698493460E-1,2.205097377E-1,2.604571581E-1,5.379585549E-2
3.713945000E-1,2.125202566E-1,2.354234457E-1,-4.953479767E-2
3.742220900E-1,1.816275865E-1,1.278317273E-1,-1.693770438E-1
3.754818080E-1,1.214401498E-1,-3.888215125E-2,-2.290318608E-1
3.778870390E-1,5.858954415E-2,-1.518001854E-1,-2.221076339E-1
3.795707690E-1,2.503371425E-2,-1.778991669E-1,-1.507349163E-1
3.820070000E-1,1.171790902E-2,-1.496696621E-1,-2.716424316E-2
3.836713460E-1,-2.024002373E-2,-3.568635881E-2,9.374327213E-2
3.861385000E-1,-7.297061384E-2,7.669904083E-2,1.699096859E-1
3.878708460E-1,-1.400822699E-1,1.475391239E-1,1.688444167E-1
3.901761150E-1,-2.231729031E-1,1.267664731E-1,1.081243455E-1
3.919487310E-1,-2.988066673E-1,2.503371425E-2,1.597896591E-2
3.947572830E-1,-3.440804183E-1,-1.155811921E-1,-7.669904083E-2
3.963713460E-1,-3.057309091E-1,-1.954760253E-1,-1.496696621E-1
3.988342060E-1,-2.673813701E-1,-1.805623323E-1,-1.443433315E-1
4.001152690E-1,-1.699096859E-1,-8.522115648E-2,-7.936219871E-2
4.029027440E-1,-4.953479767E-2,4.474110901E-2,2.343581803E-2
4.041672310E-1,7.882957160E-2,1.763012707E-1,1.001348570E-1
4.070056290E-1,1.954760253E-1,2.673813701E-1,1.193096191E-1
4.082346540E-1,2.588592768E-1,2.412824035E-1,9.906959534E-2
4.111086670E-1,2.625876963E-1,1.459412277E-1,4.687163606E-2
4.123741150E-1,2.098570913E-1,-3.834952042E-2,-3.408846259E-2
4.152118980E-1,1.667138934E-1,-1.390170157E-1,-4.474110901E-2
4.170066540E-1,1.592570394E-1,-2.300971150E-1,-5.326322280E-4
4.192565520E-1,1.848233789E-1,-2.162486911E-1,5.645901710E-2
4.204680000E-1,2.034655064E-1,-6.231797114E-2,9.374327213E-2
4.233251670E-1,1.757686287E-1,9.001484513E-2,1.315601617E-1
4.245467310E-1,1.065264493E-1,2.428802997E-1,1.166464612E-1
4.274285130E-1,1.917476021E-2,3.078614175E-1,4.527373984E-2
4.286479620E-1,-8.362326026E-2,2.514024079E-1,-4.474110901E-2
4.313508460E-1,-2.098570913E-1,1.363538504E-1,-1.134506613E-1
4.328290390E-1,-3.281014562E-1,-3.302319720E-2,-1.166464612E-1
4.356340520E-1,-3.952131271E-1,-1.363538504E-1,-9.321063757E-2
4.373127310E-1,-3.680488765E-1,-1.805623323E-1,-4.367584363E-2
4.391334620E-1,-2.487392575E-1,-1.784317940E-1,1.491370238E-2
4.409508080E-1,-8.522115648E-2,-8.735168725E-2,7.297061384E-2
4.434393080E-1,6.870955974E-2,6.764429063E-2,1.203748807E-1
4.450170390E-1,1.651159972E-1,2.450108230E-1,1.475391239E-1
4.474835770E-1,1.917476058E-1,3.542004228E-1,1.406149119E-1
4.491399620E-1,1.789644361E-1,3.579288721E-1,8.522115648E-2
4.515421540E-1,1.486043930E-1,2.540655732E-1,-7.456851192E-3
4.533192310E-1,1.134506613E-1,7.669904083E-2,-9.001484513E-2
4.561065900E-1,8.042746782E-2,-8.415589482E-2,-1.182443574E-1
4.573849620E-1,4.687163606E-2,-1.363538504E-1,-8.096009493E-2
4.597490390E-1,3.195793368E-3,-6.072007492E-2,1.118527725E-2
4.615064620E-1,-3.834952042E-2,7.989483327E-2,1.193096191E-1
4.638833850E-1,-8.255799860E-2,2.178465873E-1,2.215750068E-1
4.655500770E-1,-1.304948926E-1,2.540655732E-1,2.008023560E-1
4.679811150E-1,-2.098570913E-1,2.071939409E-1,1.406149119E-1
4.697298080E-1,-2.977414131E-1,8.681905270E-2,6.604639441E-2
4.721541540E-1,-3.403519988E-1,-8.522115648E-3,-1.544633508E-2
4.737851540E-1,-3.206445873E-1,-8.096009493E-2,-6.231797114E-2
4.766550130E-1,-2.359560728E-1,-9.374327213E-2,-4.474110901E-2
4.782865770E-1,-9.960222989E-2,-6.498113275E-2,3.675162420E-2
4.807335130E-1,6.498113275E-2,5.379585549E-2,1.278317273E-1
4.819145000E-1,2.173139453E-1,2.311623842E-1,1.853560209E-1
4.848017440E-1,3.185140789E-1,3.376888335E-1,2.130528986E-1
4.862258850E-1,3.408846259E-1,3.632551730E-1,1.960086524E-1
4.889047050E-1,3.036003709E-1,3.094593287E-1,1.331580579E-1
4.901243080E-1,2.375539690E-1,1.411475390E-1,6.551376730E-2
4.930076280E-1,1.704423130E-1,-6.231797114E-2,2.290318534E-2
4.942708080E-1,1.230380461E-1,-2.071939409E-1,1.544633508E-2
4.971112050E-1,8.309062570E-2,-2.024002522E-1,3.834952042E-2
4.988843080E-1,3.408846259E-2,2.822950855E-2,9.427590668E-2
5.011487820E-1,2.609897964E-2,1.278317273E-1,1.054611802E-1
5.023986920E-1,1.012001187E-2,3.067961633E-1,1.012001261E-1
5.052170130E-1,-2.663161233E-2,3.946804702E-1,7.190535218E-2
5.064442310E-1,-1.038632840E-1,3.866910040E-1,3.249056637E-2
5.093200130E-1,-2.215750068E-1,2.743056118E-1,3.728425596E-3
5.105520770E-1,-3.360909224E-1,8.522115648E-2,-1.651159860E-2
5.132371150E-1,-3.898867965E-1,-9.747169912E-2,-3.994741663E-2
5.146796540E-1,-3.520699143E-1,-2.311623842E-1,-5.592638254E-2
5.175258590E-1,-2.263686955E-1,-2.540655732E-1,-4.261057824E-2
5.191729230E-1,3.408846259E-2,-3.515372798E-2,4.101268202E-2
5.211474620E-1,1.896170676E-1,2.039981484E-1,1.193096191E-1
5.228177690E-1,2.881540358E-1,4.149205089E-1,1.763012707E-1
5.252990000E-1,3.281014562E-1,5.033374429E-1,1.741707325E-1
5.271151150E-1,3.110572100E-1,4.223773479E-1,1.091896072E-1
5.293615770E-1,2.647182047E-1,2.183792144E-1,-1.597896684E-3
5.310470380E-1,1.842907518E-1,-3.888215125E-2,-8.681905270E-2
5.334348850E-1,8.841694891E-2,-1.965412945E-1,-1.241033077E-1
5.351498080E-1,-1.438106969E-2,-1.869539171E-1,-9.960222989E-2
5.379904360E-1,-7.882957160E-2,-6.711166352E-2,-3.302319720E-2
5.393762690E-1,-9.800432622E-2,8.841694891E-2,4.740426689E-2
5.415799620E-1,-1.059938148E-1,2.492718846E-1,1.001348570E-1
5.432142690E-1,-1.523328125E-1,3.552657068E-1,1.315601617E-1
5.456778080E-1,-2.412824035E-1,3.201119602E-1,1.427454352E-1
5.473529230E-1,-3.318298757E-1,1.608549356E-1,1.102548689E-1
5.497503080E-1,-3.739078343E-1,-3.781688958E-2,2.343581803E-2
5.514056150E-1,-3.611246645E-1,-2.061286718E-1,-7.084008306E-2
5.538420000E-1,-3.067961633E-1,-2.801645398E-1,-1.081243455E-1
5.555240770E-1,-2.029328793E-1,-2.157160491E-1,-8.309062570E-2
5.583988590E-1,-4.793690145E-2,-3.249056637E-2,-1.225054078E-2
5.599439620E-1,2.247707993E-1,2.790992856E-1,1.059938148E-1
5.624650130E-1,3.046656251E-1,3.371562064E-1,1.363538504E-1
5.636377310E-1,4.111920893E-1,3.563309610E-1,1.640507281E-1
5.665328200E-1,4.420847595E-1,3.004045784E-1,1.203748807E-1
5.678378080E-1,3.957457542E-1,1.342233270E-1,5.432848632E-2
5.706367430E-1,3.142530024E-1,-1.091896072E-1,2.130528912E-3
5.719035380E-1,2.402171344E-1,-3.057309091E-1,-2.929477207E-2
5.747408590E-1,1.874865443E-1,-3.653857112E-1,-4.101268202E-2
5.759852310E-1,1.336906850E-1,-2.034655064E-1,-7.989482954E-3
5.788442430E-1,1.038632840E-1,3.994741663E-2,6.924218964E-3
5.805946540E-1,6.498113275E-2,2.652508616E-1,-4.793690052E-3
5.828886280E-1,-1.225054078E-2,4.170510471E-1,-3.195793182E-2
5.840988460E-1,-1.241033077E-1,3.547330499E-1,-4.900216311E-2
5.869575130E-1,-2.625876963E-1,2.093244642E-1,-8.681905270E-2
5.882653850E-1,-3.707120419E-1,-6.444849819E-2,-1.102548689E-1
5.910607050E-1,-4.085289240E-1,-4.005394280E-1,-1.134506613E-1
5.922691920E-1,-3.605920076E-1,-5.017395616E-1,-1.491370201E-1
5.949703460E-1,-2.295644879E-1,-4.969458580E-1,-1.288969964E-1
5.963966540E-1,-6.125270575E-2,-2.961435318E-1,-7.829693705E-2
5.992677820E-1,1.225054115E-1,-7.456851192E-3,0.000000000E0
6.009105000E-1,2.753708661E-1,2.290318608E-1,6.817692518E-2
6.029240770E-1,3.643204570E-1,4.085289240E-1,7.030745596E-2
6.046023850E-1,3.776362538E-1,3.552657068E-1,2.503371425E-2
6.070508460E-1,3.089267015E-1,2.119876295E-1,-9.054747969E-2
6.087630000E-1,1.997370869E-1,-3.195793182E-2,-2.008023560E-1
6.110995000E-1,7.563377917E-2,-3.126551211E-1,-2.466087192E-1
6.127632310E-1,-2.982740477E-2,-4.111920893E-1,-2.561961114E-1
6.151188460E-1,-9.267801046E-2,-3.595267534E-1,-2.039981484E-1
6.169271540E-1,-1.027980223E-1,-2.993393242E-1,-8.628641814E-2
6.197483970E-1,-7.989483327E-2,-1.171790883E-1,-7.989482954E-3
6.211495380E-1,-8.522115648E-2,1.848233789E-1,-9.054748341E-3
6.233727690E-1,-1.171790883E-1,1.837581247E-1,1.651159860E-2
6.251359610E-1,-1.645833552E-1,1.198422536E-1,-3.675162420E-2
6.275479230E-1,-2.039981484E-1,-1.209075153E-1,-1.906823367E-1
6.291817690E-1,-2.173139453E-1,-3.275688291E-1,-2.364887148E-1
6.318741540E-1,-2.018676102E-1,-4.410194755E-1,-2.231729031E-1
6.333034230E-1,-1.310275346E-1,-3.978762627E-1,-1.826928556E-1
6.357468850E-1,1.597896684E-3,-2.508697808E-1,-1.219727769E-1
6.378288850E-1,1.837581247E-1,-1.395496428E-1,-5.166532472E-2
6.402870120E-1,3.451456726E-1,5.539375171E-2,-3.089267015E-2
6.418485000E-1,4.277036786E-1,1.922802329E-1,-3.195793182E-2
6.443638970E-1,4.293015897E-1,1.507349163E-1,-2.396845073E-2
6.455284610E-1,3.781688809E-1,9.587380104E-3,-4.420847446E-2
6.484317050E-1,2.881540358E-1,-1.374191195E-1,-9.960222989E-2
6.497058850E-1,1.896170676E-1,-3.802994192E-1,-1.129180342E-1
6.525345890E-1,1.001348570E-1,-5.086637735E-1,-1.251685768E-1
6.537894610E-1,2.982740477E-2,-4.410194755E-1,-1.512675583E-1
6.566370890E-1,-1.970739290E-2,-2.796319127E-1,-1.624528319E-1
6.579055000E-1,-6.018744037E-2,-2.609897964E-2,-1.549959779E-1
6.607396660E-1,-9.587380290E-2,1.358212233E-1,-1.304948926E-1
6.625527310E-1,-1.635181010E-1,2.631203234E-1,-1.225054115E-1
6.647734350E-1,-1.954760253E-1,2.029328793E-1,-1.075917110E-1
6.659482690E-1,-2.561961114E-1,-3.941478580E-2,-7.882957160E-2
6.688416660E-1,-2.849582434E-1,-2.748382390E-1,-9.800432622E-2
6.700825770E-1,-2.407497615E-1,-4.809668958E-1,-1.400822699E-1
6.729447050E-1,-1.150485575E-1,-6.018744111E-1,-1.613875628E-1
6.741714610E-1,5.805691332E-2,-5.070658922E-1,-1.635181010E-1
6.768969610E-1,2.370213419E-1,-2.620550692E-1,-1.145159304E-1
6.784083850E-1,3.669835925E-1,5.060006306E-2,-3.036003746E-2
6.811511660E-1,4.468784332E-1,3.760383427E-1,4.527373984E-2
6.827269230E-1,4.138552547E-1,3.920173049E-1,-5.326322280E-4
6.850421920E-1,3.158509135E-1,1.949433982E-1,-9.800432622E-2
6.864494230E-1,1.763012707E-1,-1.054611802E-1,-2.087918371E-1
6.889236920E-1,3.728425596E-3,-3.318298757E-1,-2.940129936E-1
6.905551920E-1,-1.539307088E-1,-4.426173866E-1,-3.014698327E-1
6.929548460E-1,-2.684466541E-1,-3.957457542E-1,-2.343581766E-1
6.946697690E-1,-3.067961633E-1,-2.545982003E-1,-1.219727769E-1
6.970383080E-1,-3.057309091E-1,-4.900216311E-2,-1.118527725E-2
6.987302310E-1,-3.030677438E-1,1.246359423E-1,6.178534031E-2
7.016161270E-1,-3.020024598E-1,1.587243974E-1,7.669904083E-2
7.030316540E-1,-2.886866629E-1,9.054747969E-2,4.261057824E-3
7.052665000E-1,-2.567287385E-1,-6.444849819E-2,-1.145159304E-1
7.069721920E-1,-2.098570913E-1,-2.455434501E-1,-2.018676102E-1
7.094361150E-1,-1.395496428E-1,-3.611246645E-1,-2.284992188E-1
7.110865000E-1,-1.970739290E-2,-3.382214606E-1,-1.890844405E-1
7.134886150E-1,1.411475390E-1,-2.055960447E-1,-1.113201380E-1
7.151920000E-1,3.217098713E-1,-9.587380104E-3,-2.343581803E-2
7.177161150E-1,4.814995229E-1,1.603222936E-1,4.740426689E-2
7.195546920E-1,5.826996565E-1,2.679139972E-1,6.977482140E-2
7.221677040E-1,5.922870636E-1,2.418150306E-1,6.977482140E-2
7.238773080E-1,4.681837261E-1,-7.456851192E-3,3.462109342E-2
7.262480500E-1,4.037352204E-1,-1.145159304E-1,1.544633508E-2
7.274355770E-1,2.615224123E-1,-3.126551211E-1,-1.438106969E-2
7.303168970E-1,1.097222418E-1,-3.818973005E-1,-4.474110901E-2
7.316288080E-1,-9.001484513E-2,-2.466087192E-1,-7.510114461E-2
7.344212040E-1,-1.731054783E-1,-3.302319720E-2,-9.534116834E-2
7.357480380E-1,-2.215750068E-1,1.635181010E-1,-8.948221803E-2
7.385254350E-1,-2.599245310E-1,2.679139972E-1,-5.645901710E-2
7.397579230E-1,-3.190467060E-1,2.988066673E-1,-1.757686399E-2
7.426299730E-1,-4.005394280E-1,1.869539171E-1,2.822950855E-2
7.443731540E-1,-4.580637217E-1,-3.568635881E-2,4.633900523E-2
7.466689350E-1,-4.410194755E-1,-2.577939928E-1,8.522115648E-3
7.478573080E-1,-3.296993375E-1,-4.271710515E-1,-5.113269389E-2
7.507368580E-1,-1.470064968E-1,-4.452805519E-1,-8.841694891E-2
7.519911150E-1,6.178534031E-2,-2.934803665E-1,-6.285060197E-2
7.548401660E-1,2.577939928E-1,7.456851192E-3,1.065264456E-2
7.560616540E-1,4.095941782E-1,3.201119602E-1,1.001348570E-1
7.587808460E-1,5.038700700E-1,5.102616549E-1,1.491370201E-1
7.602291540E-1,5.230448246E-1,5.033374429E-1,1.347559541E-1
7.630467810E-1,4.538026452E-1,3.339604139E-1,5.752427876E-2
7.648725380E-1,2.226402760E-1,-8.255799860E-2,-7.510114461E-2
7.665043080E-1,1.262338310E-1,-1.965412945E-1,-1.070590764E-1
7.684316920E-1,-5.326322466E-2,-3.296993375E-1,-1.347559541E-1
7.709336150E-1,-1.821602285E-1,-3.371562064E-1,-1.027980223E-1
7.725018840E-1,-2.476739883E-1,-2.018676102E-1,-3.462109342E-2
7.748596150E-1,-2.780340314E-1,1.012001187E-2,5.113269389E-2
7.765444610E-1,-3.051982522E-1,2.221076339E-1,1.225054115E-1
7.788676540E-1,-3.371562064E-1,3.190467060E-1,1.486043930E-1
7.806435770E-1,-3.637878001E-1,2.705771625E-1,1.006674916E-1
7.834917430E-1,-3.701793849E-1,1.209075153E-1,-4.261057824E-3
7.848254610E-1,-3.371562064E-1,-1.821602285E-1,-1.459412277E-1
7.870243080E-1,-3.073287904E-1,-2.631203234E-1,-1.661812514E-1
7.887481150E-1,-2.024002522E-1,-3.126551211E-1,-1.539307088E-1
7.911241150E-1,4.740426689E-2,-1.006674916E-1,-5.219795927E-2
7.928855000E-1,2.434129268E-1,1.027980223E-1,4.846953228E-2
7.952157310E-1,4.069310129E-1,2.854908705E-1,1.299622655E-1
7.969137690E-1,5.134574771E-1,3.792341352E-1,1.619201899E-1
7.993385770E-1,5.315669775E-1,3.009372056E-1,1.629854590E-1
8.011013840E-1,4.671184719E-1,1.161138266E-1,1.288969964E-1
8.039063580E-1,3.515372574E-1,-1.257012039E-1,8.149272949E-2
8.054873840E-1,2.183792144E-1,-3.179814517E-1,3.249056637E-2
8.079732420E-1,1.001348570E-1,-3.712446690E-1,-1.651159860E-2
8.093474230E-1,1.704423130E-2,-2.918824553E-1,-4.633900523E-2
8.120888190E-1,-3.249056637E-2,-7.030745596E-2,-6.125270575E-2
8.132938840E-1,-5.645901710E-2,1.731054783E-1,-4.367584363E-2
8.161931270E-1,-8.415589482E-2,3.579288721E-1,-2.130528912E-3
8.174262690E-1,-1.331580579E-1,4.293015897E-1,3.888215125E-2
8.202972810E-1,-2.194444835E-1,3.259709179E-1,7.190535218E-2
8.215662310E-1,-3.083940744E-1,7.723167539E-2,7.723167539E-2
8.244018190E-1,-3.605920076E-1,-2.098570913E-1,2.609897964E-2
8.261658460E-1,-2.870887816E-1,-4.846953154E-1,-8.149272949E-2
8.284434350E-1,-2.290318608E-1,-5.028048158E-1,-1.012001261E-1
8.296965000E-1,-7.989483327E-2,-3.675162494E-1,-9.587380290E-2
8.325120120E-1,7.989483327E-2,-6.604639441E-2,-2.822950855E-2
8.337413840E-1,2.162486911E-1,2.854908705E-1,6.125270575E-2
8.366158190E-1,3.041329980E-1,5.214469433E-1,1.331580579E-1
8.379021920E-1,3.318298757E-1,5.432848930E-1,1.448759735E-1
8.405744610E-1,2.892192900E-1,3.723099232E-1,8.628641814E-2
8.419872310E-1,1.107875034E-1,-1.129180342E-1,-4.580637068E-2
8.448230500E-1,-4.953479767E-2,-3.520699143E-1,-1.230380461E-1
8.465186540E-1,-1.693770438E-1,-4.436826408E-1,-1.502022892E-1
8.483593070E-1,-2.173139453E-1,-3.893541694E-1,-1.198422536E-1
8.501236920E-1,-2.018676102E-1,-1.715075821E-1,-4.900216311E-2
8.527498070E-1,-1.709749401E-1,1.118527651E-1,4.207794741E-2
8.542175770E-1,-1.571265012E-1,3.163835406E-1,1.288969964E-1
8.566591150E-1,-1.555286050E-1,3.659183383E-1,1.581917703E-1
8.583155380E-1,-1.592570394E-1,2.311623842E-1,9.853696078E-2
8.606790380E-1,-1.651159972E-1,1.225054078E-2,-2.822950855E-2
8.624572690E-1,-1.816275865E-1,-2.183792144E-1,-1.549959779E-1
8.653002810E-1,-1.810949594E-1,-3.542004228E-1,-2.194444835E-1
8.666258460E-1,-1.400822699E-1,-3.190467060E-1,-2.103897333E-1
8.688976920E-1,-3.515372798E-2,-1.629854590E-1,-1.214401498E-1
8.706546920E-1,1.187769845E-1,1.757686399E-2,9.587380104E-3
8.730876150E-1,2.695119083E-1,1.949433982E-1,1.134506613E-1
8.747545770E-1,3.760383427E-1,2.908172011E-1,1.539307088E-1
8.771253460E-1,3.989415467E-1,2.796319127E-1,1.406149119E-1
8.788299610E-1,3.408846259E-1,1.065264493E-1,9.960222989E-2
8.812740000E-1,2.311623842E-1,-9.640643001E-2,3.888215125E-2
8.829744230E-1,1.113201380E-1,-3.004045784E-1,-7.989482954E-3
8.858382040E-1,2.822950855E-2,-4.436826408E-1,-2.396845073E-2
8.875066920E-1,-9.054748341E-3,-3.483414650E-1,-3.408846259E-2
8.899141650E-1,-4.261057824E-3,-2.460760921E-1,-3.355583176E-2
8.910929230E-1,1.118527725E-2,4.101268202E-2,-3.834952042E-2
8.939819730E-1,0.000000000E0,4.127899706E-1,-1.970739290E-2
8.951807310E-1,-5.113269389E-2,4.692489803E-1,4.793690052E-3
8.980847420E-1,-1.411475390E-1,3.318298757E-1,3.142530099E-2
8.993207310E-1,-2.482066154E-1,5.113269389E-2,3.728425503E-2
9.021887810E-1,-3.435477912E-1,-2.631203234E-1,1.225054078E-2
9.034434230E-1,-3.792341352E-1,-4.804342687E-1,-3.621899337E-2
9.062923190E-1,-3.259709179E-1,-5.289037824E-1,-9.267801046E-2
9.085742690E-1,-1.869539171E-1,-3.840278387E-1,-1.182443574E-1
9.103379340E-1,2.130528912E-3,-7.403588295E-2,-9.747169912E-2
9.115566920E-1,1.720402092E-1,2.593919039E-1,-1.970739290E-2
9.144070110E-1,2.998719513E-1,5.214469433E-1,7.243798673E-2
9.156081920E-1,3.376888335E-1,5.944175720E-1,1.342233270E-1
9.185110880E-1,2.652508616E-1,4.777711034E-1,1.395496428E-1
9.198316150E-1,1.182443574E-1,1.965412945E-1,7.669904083E-2
9.224543070E-1,-3.249056637E-2,-1.981391907E-1,-9.054748341E-3
9.238845380E-1,-1.395496428E-1,-5.230448246E-1,-8.788431436E-2
9.267180110E-1,-1.773665249E-1,-6.519418359E-1,-1.187769845E-1
9.282594610E-1,-1.549959779E-1,-5.326322317E-1,-7.030745596E-2
9.301990770E-1,-8.948221803E-2,-1.986718178E-1,3.089267015E-2
9.319783070E-1,-2.716424316E-2,2.039981484E-1,1.411475390E-1
9.344671150E-1,1.225054078E-2,5.118595958E-1,2.061286718E-1
9.361621920E-1,1.864212751E-2,5.566006899E-1,1.986718178E-1
9.385414610E-1,-4.793690052E-3,3.515372574E-1,1.001348570E-1
9.402143460E-1,-5.645901710E-2,3.888215125E-2,-6.285060197E-2
9.425656920E-1,-1.342233270E-1,-2.604571581E-1,-1.960086524E-1
9.443263070E-1,-2.146507949E-1,-4.197141826E-1,-2.348908186E-1
9.471875880E-1,-1.853560209E-1,-2.934803665E-1,-1.512675583E-1
9.485853840E-1,-8.468852192E-2,-5.858954415E-2,-1.864212751E-2
9.507963840E-1,5.858954415E-2,1.704423130E-1,1.049285457E-1
9.525809610E-1,1.789644361E-1,3.462109566E-1,1.704423130E-1
9.549683460E-1,2.210423797E-1,4.154531360E-1,1.608549356E-1
9.566816540E-1,1.731054783E-1,3.382214606E-1,1.027980223E-1
9.590208460E-1,7.723167539E-2,8.468852192E-2,3.994741663E-2
9.607544610E-1,-1.331580617E-2,-2.146507949E-1,-1.864212751E-2
9.632164610E-1,-4.633900523E-2,-4.665858448E-1,-4.314320907E-2
9.649659230E-1,-1.171790902E-2,-5.821670294E-1,-1.757686399E-2
9.677390110E-1,6.870955974E-2,-4.506068528E-1,3.515372798E-2
9.695538460E-1,1.502022892E-1,-1.427454352E-1,1.017327532E-1
9.718198570E-1,2.045307755E-1,2.338255495E-1,1.443433315E-1
9.730376540E-1,2.141181529E-1,4.894890189E-1,1.507349163E-1
9.758889730E-1,1.725728363E-1,5.438175201E-1,1.033306494E-1
9.771165770E-1,6.018744037E-2,3.813646734E-1,1.864212751E-2
9.799932030E-1,-1.155811921E-1,9.214537591E-2,-5.912217870E-2
9.812102690E-1,-3.046656251E-1,-2.178465873E-1,-1.065264493E-1
9.840970110E-1,-4.271710515E-1,-4.255731404E-1,-1.310275346E-1
9.853792690E-1,-4.261057973E-1,-4.964132309E-1,-1.241033077E-1
9.882012800E-1,-3.030677438E-1,-4.005394280E-1,-8.042746782E-2
9.899202300E-1,-2.769687586E-2,1.757686399E-2,2.343581803E-2
9.922385110E-1,5.273059011E-2,1.912149638E-1,5.965480953E-2
9.934293840E-1,1.502022892E-1,4.932174385E-1,1.102548689E-1
9.963068570E-1,1.651159972E-1,6.189186573E-1,1.187769845E-1
9.975516540E-1,7.297061384E-2,3.685815036E-1,2.822950855E-2
1.000410319E0,-2.663161140E-3,-9.587380104E-3,-5.699164793E-2
1.001765307E0,-5.379585549E-2,-4.048005044E-1,-9.906959534E-2
1.004473923E0,-6.178534031E-2,-6.343649626E-1,-8.096009493E-2
1.005890192E0,-1.438106969E-2,-6.087986231E-1,-1.065264456E-3
1.008617088E0,7.510114461E-2,-3.733751774E-1,1.091896072E-1
1.010381654E0,1.810949594E-1,-2.450108156E-2,1.997370869E-1
1.012102961E0,2.609897852E-1,2.934803665E-1,2.370213419E-1
1.013904461E0,2.561961114E-1,4.953479767E-1,2.002697140E-1
1.016369192E0,1.741707325E-1,4.692489803E-1,1.129180342E-1
1.018014230E0,2.609897964E-2,2.380866110E-1,-1.597896684E-3
1.020433269E0,-1.363538504E-1,-4.687163606E-2,-1.299622655E-1
1.022123807E0,-2.759034932E-1,-3.147856593E-1,-2.125202566E-1
1.024489577E0,-3.621899188E-1,-4.106594622E-1,-2.295644879E-1
1.026229500E0,-3.850930929E-1,-3.376888335E-1,-1.651159972E-1
1.029080434E0,-3.605920076E-1,-9.161274135E-2,-5.113269389E-2
1.030394077E0,-3.004045784E-1,1.864212751E-1,7.243798673E-2
1.032601577E0,-2.343581766E-1,3.414172530E-1,1.661812514E-1
1.034313346E0,-1.731054783E-1,3.802994192E-1,1.704423130E-1
1.036930115E0,-1.326254308E-1,2.450108230E-1,9.800432622E-2
1.038662692E0,-1.097222418E-1,1.118527725E-2,-6.924218964E-3
1.040796538E0,-8.628641814E-2,-2.295644879E-1,-7.989483327E-2
1.042545884E0,-2.450108156E-2,-4.149205089E-1,-7.669904083E-2
1.044941307E0,9.960222989E-2,-4.612595141E-1,-2.130528912E-3
1.046625577E0,2.908172011E-1,-3.952131271E-1,1.182443574E-1
1.049494088E0,4.969458580E-1,-2.189118415E-1,2.306297570E-1
1.051052384E0,6.977482438E-1,1.331580579E-1,2.711097896E-1
1.053561126E0,6.902913451E-1,3.190467060E-1,1.938781291E-1
1.054817307E0,5.629922748E-1,3.882888854E-1,5.273059011E-2
1.057628780E0,3.478088379E-1,2.775014043E-1,-8.202536404E-2
1.058824807E0,8.149272949E-2,6.924218684E-2,-1.890844405E-1
1.061732049E0,-1.741707325E-1,-1.731054783E-1,-2.327602804E-1
1.062948384E0,-3.744404614E-1,-3.755057156E-1,-2.024002522E-1
1.065833884E0,-4.969458580E-1,-4.106594622E-1,-1.432780623E-1
1.067098961E0,-5.214469433E-1,-3.643204570E-1,-6.018744037E-2
1.069938549E0,-4.548679292E-1,-2.082591951E-1,-1.118527725E-2
1.071685269E0,-3.387540877E-1,-3.728425596E-3,-1.597896684E-3
1.073981434E0,-2.407497615E-1,1.587243974E-1,-1.171790902E-2
1.075162961E0,-2.071939409E-1,2.423476577E-1,-3.515372798E-2
1.078050665E0,-2.061286718E-1,2.205097377E-1,-8.309062570E-2
1.079257923E0,-2.071939409E-1,6.125270575E-2,-1.379517466E-1
1.082154972E0,-1.747033745E-1,-1.608549356E-1,-1.816275865E-1
1.083363884E0,-9.001484513E-2,-4.000068009E-1,-1.794970632E-1
1.086159769E0,4.793690145E-2,-5.299690962E-1,-1.352885813E-1
1.087533077E0,2.189118415E-1,-4.964132309E-1,-5.805691332E-2
1.090362395E0,3.792341352E-1,-3.398193717E-1,3.621899337E-2
1.091988846E0,5.150553584E-1,2.663161233E-2,1.251685768E-1
1.093828077E0,5.187838078E-1,1.278317273E-1,1.246359423E-1
1.095745384E0,4.676510990E-1,2.157160491E-1,7.936219871E-2
1.098227807E0,3.611246645E-1,1.230380461E-1,-2.024002373E-2
1.099823153E0,2.258360684E-1,-7.989483327E-2,-1.523328125E-1
1.102304307E0,7.829693705E-2,-3.073287904E-1,-2.588592768E-1
1.103815384E0,-7.669904083E-2,-4.335626364E-1,-3.147856593E-1
1.106134884E0,-2.018676102E-1,-3.973436356E-1,-3.014698327E-1
1.107896384E0,-2.844256163E-1,-2.652508616E-1,-2.269013226E-1
1.110733087E0,-3.243730366E-1,-8.628641814E-2,-1.272991002E-1
1.112007269E0,-3.414172530E-1,4.420847446E-2,-3.728425596E-3
1.114358730E0,-3.499393761E-1,3.675162420E-2,-5.326322280E-3
1.116121077E0,-3.515372574E-1,-6.498113275E-2,-7.243798673E-2
1.118531653E0,-3.371562064E-1,-2.460760921E-1,-1.661812514E-1
1.120236346E0,-2.700445354E-1,-3.946804702E-1,-2.418150306E-1
1.122627307E0,-1.470064968E-1,-5.022721887E-1,-2.434129268E-1
1.124330461E0,2.130528912E-2,-5.342301130E-1,-1.523328125E-1
1.126747577E0,2.253034264E-1,-4.660531878E-1,-2.024002373E-2
1.128450423E0,4.346278906E-1,-3.488741219E-1,9.587380290E-2
1.131275587E0,6.029396653E-1,-1.912149638E-1,1.235706806E-1
1.132851807E0,6.886934638E-1,-6.551376730E-2,5.166532472E-2
1.135352318E0,6.753776670E-1,-1.331580617E-2,-9.374327213E-2
1.136751076E0,5.779059529E-1,-2.929477207E-2,-2.599245310E-1
1.139422318E0,4.218447208E-1,-1.496696621E-1,-3.643204570E-1
1.140637461E0,2.359560728E-1,-2.764361203E-1,-3.882888854E-1
1.143527049E0,5.006742850E-2,-3.643204570E-1,-3.334277868E-1
1.144810692E0,-1.129180342E-1,-4.394215941E-1,-2.247707993E-1
1.147631587E0,-2.146507949E-1,-4.745753109E-1,-1.368864775E-1
1.148897730E0,-2.375539690E-1,-4.836300611E-1,-1.107875034E-1
1.151735895E0,-2.039981484E-1,-4.681837261E-1,-1.528654546E-1
1.153558923E0,-1.677791476E-1,-3.563309610E-1,-2.577939928E-1
1.155781472E0,-1.693770438E-1,-3.089267015E-1,-2.876214087E-1
1.156963423E0,-1.778991669E-1,-2.178465873E-1,-3.408846259E-1
1.159850587E0,-1.699096859E-1,-1.778991669E-1,-3.808320463E-1
1.161060115E0,-1.320927888E-1,-2.284992188E-1,-3.984089196E-1
1.163954741E0,-2.716424316E-2,-3.808320463E-1,-3.771036267E-1
1.165192884E0,6.817692518E-2,-4.921521842E-1,-3.275688291E-1
1.168037307E0,1.731054783E-1,-5.640575290E-1,-2.700445354E-1
1.169833538E0,2.684466541E-1,-5.704491138E-1,-2.189118415E-1
1.172163049E0,3.371562064E-1,-5.065332651E-1,-1.917476058E-1
1.173893884E0,3.526025414E-1,-3.984089196E-1,-1.970739216E-1
1.175685230E0,3.067961633E-1,-2.796319127E-1,-2.242381722E-1
1.177442769E0,2.263686955E-1,-2.514024079E-1,-2.567287385E-1
1.179894384E0,1.352885813E-1,-2.881540358E-1,-3.051982522E-1
1.181563230E0,5.645901710E-2,-3.941478431E-1,-3.451456726E-1
1.184033500E0,-1.864212751E-2,-4.894890189E-1,-3.744404614E-1
1.185972384E0,-8.096009493E-2,-5.177185535E-1,-3.707120419E-1
1.188138153E0,-1.299622655E-1,-5.278385282E-1,-3.249056637E-1
1.189893730E0,-1.528654546E-1,-4.538026452E-1,-2.865561247E-1
1.192634472E0,-1.374191195E-1,-3.142530024E-1,-2.673813701E-1
1.193983884E0,-1.214401498E-1,-2.679139972E-1,-2.247707993E-1
1.196327000E0,-1.187769845E-1,-2.253034264E-1,-2.034655064E-1
1.198150500E0,-1.006674916E-1,-2.450108230E-1,-2.018676102E-1
1.200433923E0,-9.640643001E-2,-2.817624509E-1,-2.098570913E-1
1.202178461E0,-1.379517466E-1,-3.542004228E-1,-1.853560209E-1
1.204640961E0,-1.267664731E-1,-5.842975378E-1,-1.257012039E-1
1.206432615E0,-3.728425596E-3,-6.881608367E-1,-1.518001854E-1
1.208644692E0,1.901497096E-1,-7.185208797E-1,-2.002697140E-1
1.210888461E0,3.957457542E-1,-6.029396653E-1,-1.896170676E-1
1.213187741E0,4.543353021E-1,-2.982740402E-1,-2.050634027E-1
1.214824307E0,4.889563918E-1,-7.510114461E-2,-2.322276533E-1
1.217267241E0,4.846953154E-1,-2.237055451E-2,-2.609897852E-1
1.218483384E0,4.191815555E-1,-7.669904083E-2,-3.222424984E-1
1.221335895E0,2.972087860E-1,-3.030677438E-1,-3.430151641E-1
1.222644461E0,1.427454352E-1,-5.736449361E-1,-3.648530841E-1
1.225439010E0,2.982740477E-2,-7.664577961E-1,-3.925499618E-1
1.226684961E0,-3.728425596E-3,-9.917612076E-1,-3.856257200E-1
1.229542779E0,5.273059011E-2,-1.012533903E0,-3.952131271E-1
1.230802653E0,1.613875628E-1,-9.699232578E-1,-3.802994192E-1
1.233646087E0,2.940129936E-1,-7.446198463E-1,-4.005394280E-1
1.235497961E0,3.675162494E-1,-4.591289759E-1,-4.372910559E-1
1.237684625E0,3.478088379E-1,-2.322276533E-1,-4.910869002E-1
1.238847807E0,2.428802997E-1,-1.257012039E-1,-5.842975378E-1
1.241752933E0,1.038632840E-1,-2.082591951E-1,-7.078682184E-1
1.242977615E0,-1.544633508E-2,-5.091964006E-1,-7.989483476E-1
1.245823702E0,-1.288969964E-1,-8.543421030E-1,-8.388957381E-1
1.247036730E0,-2.567287385E-1,-1.012001276E0,-8.186557293E-1
1.249736769E0,-3.936152160E-1,-1.020523310E0,-7.233145833E-1
1.251126807E0,-4.836300611E-1,-9.060074091E-1,-6.056028605E-1
1.253997202E0,-5.006743073E-1,-7.323693037E-1,-5.358279943E-1
1.255591846E0,-4.165183902E-1,-6.279733777E-1,-5.352953672E-1
1.257496769E0,-3.792341352E-1,-6.444849968E-1,-5.555354357E-1
1.259305576E0,-3.014698327E-1,-7.137271762E-1,-6.215817928E-1
1.261717846E0,-2.162486911E-1,-8.133293986E-1,-7.020092607E-1
1.263345076E0,-9.054747969E-2,-9.086706042E-1,-7.653924823E-1
1.265779884E0,7.190535218E-2,-8.958874345E-1,-8.037420511E-1
1.267562307E0,2.609897852E-1,-8.756473660E-1,-7.446198463E-1
1.269832346E0,5.842975378E-1,-8.564726114E-1,-5.107942820E-1
1.271577384E0,8.255799413E-1,-8.554073572E-1,-3.739078343E-1
1.274481548E0,1.042361259E0,-8.341020942E-1,-3.307646215E-1
1.275788653E0,1.174986720E0,-7.776430249E-1,-3.813646734E-1
1.277968884E0,1.170192957E0,-7.249124646E-1,-4.793690145E-1
1.279667884E0,1.048752904E0,-6.338323355E-1,-5.757754445E-1
1.282090115E0,8.633968234E-1,-7.131945491E-1,-5.917543769E-1
1.283796692E0,6.913566589E-1,-8.096010089E-1,-6.002765298E-1
1.286217115E0,5.858954787E-1,-1.004011750E0,-5.699164867E-1
1.287916269E0,4.703142643E-1,-1.235706806E0,-5.049353242E-1
1.290313038E0,2.402171344E-1,-9.283779860E-1,-5.917543769E-1
1.292008653E0,-3.249056637E-2,-7.542072535E-1,-6.146575809E-1
1.294898741E0,-2.258360684E-1,-8.394283652E-1,-6.215817928E-1
1.296447461E0,-3.573962152E-1,-6.311691999E-1,-7.781757116E-1
1.298968318E0,-5.491438508E-1,-6.865629554E-1,-7.888283134E-1
1.300130846E0,-8.074704409E-1,-8.511462808E-1,-7.036072016E-1
1.303037741E0,-9.853696227E-1,-9.518138170E-1,-6.844323874E-1
1.304242769E0,-9.981527925E-1,-9.688580036E-1,-7.765777707E-1
1.307142587E0,-8.873652816E-1,-1.031175971E0,-8.559399843E-1
1.308330576E0,-6.391586661E-1,-1.173921466E0,-8.458199501E-1
1.311242538E0,-2.439455539E-1,-1.136637211E0,-8.234494328E-1
1.312463346E0,2.444781959E-1,-9.800432920E-1,-7.574030161E-1
1.315351510E0,7.185208797E-1,-9.177253246E-1,-5.944175720E-1
1.317116076E0,1.241565704E0,-6.972155571E-1,-4.756405652E-1
1.319394471E0,1.354483724E0,-5.741775632E-1,-5.182511806E-1
1.320686038E0,1.453553319E0,-4.271710515E-1,-6.700513363E-1
1.323463971E0,1.406681657E0,-4.820321798E-1,-8.298410177E-1
1.324664115E0,1.246359468E0,-6.583334208E-1,-9.470201135E-1
1.327568779E0,8.825715780E-1,-9.779127836E-1,-9.555422068E-1
1.328794576E0,6.173207760E-1,-1.153148770E0,-8.458199501E-1
1.331522615E0,3.771036267E-1,-1.185106754E0,-7.158577442E-1
1.332938730E0,1.800296903E-1,-1.179247737E0,-5.821670294E-1
1.335777125E0,6.338323653E-2,-1.208542466E0,-4.719121456E-1
1.337488307E0,4.154531285E-2,-1.296426892E0,-4.511395097E-1
1.339309923E0,7.936219871E-2,-1.253816247E0,-5.672533512E-1
1.341100038E0,1.118527651E-1,-1.083906531E0,-7.542072535E-1
1.343560153E0,9.374327213E-2,-8.623315692E-1,-9.038769007E-1
1.345173499E0,2.130528912E-2,-6.301039457E-1,-9.859022498E-1
1.347589269E0,-5.858954415E-2,-5.209143162E-1,-1.007207513E0
1.349285346E0,-8.681905270E-2,-5.608617067E-1,-1.004011750E0
1.351659769E0,-5.113269389E-2,-7.861651778E-1,-9.725864530E-1
1.353397999E0,-8.522115648E-3,-1.036502361E0,-9.262474179E-1
1.356257240E0,-5.219795927E-2,-1.133973956E0,-8.703210354E-1
1.357559192E0,-2.071939409E-1,-1.111603498E0,-7.808388472E-1
1.359880884E0,-3.456783295E-1,-1.088167667E0,-7.137271762E-1
1.361657422E0,-3.701793849E-1,-1.092428684E0,-7.499461770E-1
1.364025576E0,-2.860234976E-1,-1.080710769E0,-8.586031795E-1
1.365899192E0,-1.992044598E-1,-1.058340192E0,-9.283779860E-1
1.368107346E0,-1.816275865E-1,-9.544769526E-1,-9.182579517E-1
1.369917192E0,-1.406149119E-1,-8.436894417E-1,-8.575378656E-1
1.372248884E0,4.420847446E-2,-9.006810784E-1,-7.925567627E-1
1.373937038E0,6.860303283E-1,-1.334776402E0,-7.414240837E-1
1.376800510E0,1.160605669E0,-1.538241863E0,-7.371630073E-1
1.378559076E0,1.524393439E0,-1.422660708E0,-7.408914566E-1
1.380876163E0,1.667138815E0,-1.115864515E0,-6.924219131E-1
1.382041576E0,1.601625085E0,-6.684534550E-1,-6.503439546E-1
1.384945663E0,1.447161794E0,-3.536677957E-1,-6.759102941E-1
1.386243422E0,1.282578349E0,-4.261057973E-1,-7.462177277E-1
1.389050202E0,1.070058107E0,-8.282431364E-1,-8.080030680E-1
1.390268153E0,7.600662112E-1,-1.285241604E0,-8.410263062E-1
1.393154856E0,4.032025933E-1,-1.616006136E0,-8.655273914E-1
1.394402038E0,7.350324839E-2,-1.553155541E0,-9.619337916E-1
1.397259663E0,-1.608549356E-1,-1.272991061E0,-1.042361259E0
1.399068307E0,-3.302319944E-1,-1.104146600E0,-9.400959015E-1
1.401306509E0,-3.238403797E-1,-1.039698124E0,-9.049421549E-1
1.402700384E0,-2.577939928E-1,-9.416937828E-1,-8.511462808E-1
1.405376317E0,-2.540655732E-1,-8.293083906E-1,-8.255799413E-1
1.406767153E0,-3.813646734E-1,-7.797735929E-1,-8.101336360E-1
1.409480432E0,-5.320996046E-1,-9.155948162E-1,-8.351673484E-1
1.410782846E0,-6.066681147E-1,-1.151550889E0,-9.651296139E-1
1.413377653E0,-6.119944453E-1,-1.317199469E0,-1.161670923E0
1.414801346E0,-5.661880374E-1,-1.329982638E0,-1.327852130E0
1.417688471E0,-4.740426838E-1,-1.173388839E0,-1.359277487E0
1.419474884E0,-2.460760921E-1,-8.314388990E-1,-1.074851871E0
1.421196499E0,-1.629854590E-1,-7.275756001E-1,-9.305084944E-1
1.422985769E0,5.699164793E-2,-6.780408025E-1,-6.705839634E-1
1.425476499E0,4.090615511E-1,-9.166600704E-1,-5.624596477E-1
1.427080922E0,9.235842824E-1,-1.336906910E0,-6.471481323E-1
1.429499807E0,1.518001795E0,-1.542502880E0,-9.502158761E-1
1.431236192E0,1.491902828E0,-1.066329718E0,-1.040230751E0
1.433554230E0,1.209607840E0,-6.125270724E-1,-9.049421549E-1
1.435400307E0,1.038100243E0,-4.511395097E-1,-7.797735929E-1
1.438155279E0,1.116397142E0,-6.700513363E-1,-7.962851524E-1
1.439485384E0,1.221325755E0,-1.031175971E0,-9.044095278E-1
1.441756961E0,1.066862345E0,-1.190433025E0,-9.518138170E-1
1.443478461E0,6.343649626E-1,-1.196292043E0,-8.570052385E-1
1.445925422E0,2.428802997E-1,-1.117995024E0,-7.685883045E-1
1.447578961E0,1.608549356E-1,-1.254348874E0,-7.494135499E-1
1.449958769E0,3.265035450E-1,-1.504153371E0,-7.861651778E-1
1.451708153E0,5.017395616E-1,-1.661279917E0,-7.691209316E-1
1.454127538E0,5.006743073E-1,-1.573395610E0,-6.908239722E-1
1.455838307E0,3.366235793E-1,-1.090830803E0,-7.238472104E-1
1.458670240E0,1.475391239E-1,-5.107942820E-1,-9.384979606E-1
1.460301769E0,1.491370238E-2,-3.302319720E-2,-1.433845997E0
1.462750932E0,-3.302319720E-2,-1.731054783E-1,-1.510545015E0
1.463932269E0,-1.890844405E-1,-5.629922748E-1,-1.484978676E0
1.466820086E0,-4.404868484E-1,-9.219864011E-1,-1.274056315E0
1.468042884E0,-6.609966159E-1,-1.439172268E0,-9.592706561E-1
1.470924432E0,-6.753776670E-1,-1.803492665E0,-7.723167539E-1
1.472196422E0,-4.820321798E-1,-1.945705533E0,-7.520766854E-1
1.475028894E0,-2.396845073E-1,-1.726261020E0,-8.383631110E-1
1.476282692E0,-7.829693705E-2,-1.398692250E0,-8.436894417E-1
1.479133432E0,1.288969964E-1,-8.570052385E-1,-8.644620776E-1
1.480847499E0,4.010720551E-1,-6.237123609E-1,-1.001348615E0
1.483171817E0,7.339671850E-1,-6.050702333E-1,-1.176584601E0
1.484370422E0,9.321063757E-1,-7.084008455E-1,-1.245826840E0
1.487240778E0,9.411611557E-1,-9.198558331E-1,-1.165931940E0
1.488540499E0,9.331716895E-1,-1.098820329E0,-1.048752904E0
1.491344086E0,1.098287702E0,-1.432248116E0,-9.614011645E-1
1.492638461E0,1.400290132E0,-1.786981106E0,-8.852347732E-1
1.495261692E0,1.628789306E0,-1.960619211E0,-7.755125165E-1
1.496691115E0,1.628789306E0,-1.805090666E0,-6.892260909E-1
1.499551240E0,1.418399572E0,-1.083906531E0,-8.037420511E-1
1.501771076E0,9.608685374E-1,-6.285060197E-2,-1.196292043E0
1.503048345E0,7.739146352E-1,2.822950855E-2,-1.278849959E0
1.504852038E0,3.717772961E-1,-2.343581766E-1,-1.322525859E0
1.507185922E0,-8.628641814E-2,-7.195861340E-1,-1.261273146E0
1.508925730E0,-5.134574771E-1,-1.417334318E0,-1.129180312E0
1.511756307E0,-7.504788041E-1,-2.071939468E0,-1.009870648E0
1.513014730E0,-8.426241875E-1,-2.347842932E0,-9.624664187E-1
1.515366307E0,-8.372978568E-1,-2.073537350E0,-9.353021979E-1
1.517151076E0,-8.261125684E-1,-1.768871665E0,-8.122641444E-1
1.519994971E0,-6.913566589E-1,-1.238369942E0,-7.941546440E-1
1.521423807E0,-3.531351686E-1,-6.828345060E-1,-9.640643597E-1
1.523616807E0,4.846953228E-2,-3.616572917E-1,-1.174454093E0
1.525340307E0,3.051982522E-1,-3.728425503E-1,-1.237837315E0
1.527848922E0,3.312972486E-1,-4.793690145E-1,-1.204281449E0
1.529509538E0,3.499393761E-1,-6.263754964E-1,-1.185639381E0
1.531794461E0,7.472830415E-1,-1.435443878E0,-1.081776023E0
1.533570038E0,1.173388839E0,-2.048503637E0,-9.363674521E-1
1.535965153E0,1.604820848E0,-2.386724949E0,-7.621967196E-1
1.537737538E0,1.936650753E0,-2.014415026E0,-7.350324988E-1
1.540529240E0,2.069276094E0,-9.448895454E-1,-8.580704927E-1
1.542071269E0,1.827993751E0,1.043959185E-1,-8.937568665E-1
1.544596663E0,1.301753163E0,6.226470470E-1,-8.351673484E-1
1.545785538E0,7.558051348E-1,3.930825889E-1,-8.719189763E-1
1.548665047E0,3.994741738E-1,-4.665858448E-1,-1.051416039E0
1.549869422E0,1.241033077E-1,-1.576591372E0,-1.211205721E0
1.552768817E0,-2.498045117E-1,-2.337722778E0,-1.221858382E0
1.553990769E0,-7.281082273E-1,-2.371278763E0,-1.045557022E0
1.556873817E0,-1.033306479E0,-1.969141364E0,-7.994809747E-1
1.558172038E0,-9.049421549E-1,-1.464205980E0,-6.508765817E-1
1.560978278E0,-4.724447727E-1,-9.321063757E-1,-6.807039976E-1
1.562701884E0,1.155811921E-1,-1.571265012E-1,-8.016114831E-1
1.565019701E0,1.555286050E-1,-5.645901710E-2,-7.696535587E-1
1.566185730E0,5.965480953E-2,3.515372798E-2,-7.318366766E-1
1.569087932E0,-5.006742850E-2,-6.391586736E-3,-8.612663150E-1
1.570426845E0,1.544633508E-2,-6.918892860E-1,-1.005077004E0
1.573191509E0,3.083940744E-1,-1.633583069E0,-1.115864515E0
1.574460845E0,7.691209316E-1,-2.361691236E0,-1.140365601E0
1.577169153E0,1.250087857E0,-2.309493303E0,-1.126517177E0
1.578537307E0,1.602690339E0,-1.184574127E0,-1.072721362E0
1.581399893E0,1.594168305E0,3.462109342E-2,-7.387608886E-1
1.583032230E0,1.068992853E0,9.677927494E-1,-1.789644361E-1
1.584879268E0,9.310411215E-1,9.044095278E-1,-1.677791476E-1
1.586780653E0,7.861651778E-1,1.560612470E-1,-4.346278906E-1
1.589244922E0,4.452805519E-1,-1.684183121E0,-9.358348250E-1
1.590798192E0,-1.049285457E-1,-2.516687393E0,-9.422264099E-1
1.593209538E0,-6.748450398E-1,-2.458097696E0,-8.420915604E-1
1.594935192E0,-7.776430249E-1,-1.861016989E0,-7.755125165E-1
1.597259730E0,-3.866910040E-1,-1.291633129E0,-6.844323874E-1
1.599006115E0,1.986718178E-1,-5.997439027E-1,-5.997439027E-1
1.601882739E0,6.226470470E-1,-6.285060197E-2,-4.218447208E-1
1.603180115E0,6.769755483E-1,4.532700181E-1,-3.126551211E-1
1.605511076E0,4.554005563E-1,7.392935157E-1,-3.930825889E-1
1.607252922E0,1.810949594E-1,1.651159972E-1,-5.629922748E-1
1.609863268E0,5.113269389E-2,-9.933590889E-1,-8.341020942E-1
1.611423499E0,1.842907518E-1,-2.141181469E0,-1.171790957E0
1.613730422E0,4.410194755E-1,-2.551308393E0,-1.417866945E0
1.615477076E0,5.571333170E-1,-1.756621122E0,-1.378452182E0
1.617873461E0,3.834952116E-1,-4.740426838E-1,-8.804410696E-1
1.619572499E0,1.592570394E-1,5.901564956E-1,-2.615224123E-1
1.622427316E0,2.071939409E-1,9.576727748E-1,-3.728425596E-3
1.623988999E0,6.050702333E-1,-4.580637068E-2,-3.446130455E-1
1.626502855E0,6.151902080E-1,-5.267732739E-1,-5.187838078E-1
1.627937192E0,2.572613657E-1,-1.504153371E0,-6.940197945E-1
1.630572547E0,-3.350256681E-1,-2.080994129E0,-7.126619220E-1
1.631822345E0,-5.890912414E-1,-2.080994129E0,-8.074704409E-1
1.634676932E0,-2.908172011E-1,-1.893507600E0,-9.065400362E-1
1.636036653E0,6.077333689E-1,-1.239435196E0,-7.504788041E-1
1.638781239E0,1.107342362E0,-4.820321798E-1,-4.958806038E-1
1.640119845E0,1.349157453E0,4.378236830E-1,-2.929477394E-1
1.642885778E0,1.227184653E0,9.193232059E-1,-1.629854590E-1
1.644692576E0,8.996158242E-1,5.422195792E-1,-1.997370869E-1
1.646933162E0,7.131945491E-1,-5.752428174E-1,-5.390238166E-1
1.648117268E0,7.621967196E-1,-1.916943431E0,-1.059938192E0
1.651002662E0,7.195861340E-1,-2.427737713E0,-1.524393439E0
1.652221038E0,3.083940744E-1,-1.869006515E0,-1.531850338E0
1.655107585E0,-2.838929892E-1,-9.384979606E-1,-1.045024395E0
1.656407730E0,-4.868258536E-1,-1.454086006E-1,-5.651227832E-1
1.659031153E0,-1.262338310E-1,1.470064968E-1,-4.026699662E-1
1.660449076E0,3.126551211E-1,9.587380104E-3,-4.724447727E-1
1.663317855E0,2.455434501E-1,-4.575310946E-1,-4.356931746E-1
1.664952422E0,-3.089267015E-1,-1.019990683E0,-3.728425503E-1
1.666801692E0,-7.744472623E-1,-1.378452182E0,-5.864281058E-1
1.668595615E0,-8.090683818E-1,-1.726261020E0,-1.033839107E0
1.671070230E0,-5.635249019E-1,-1.869006515E0,-1.385376453E0
1.672798076E0,-2.918824553E-1,-1.811482191E0,-1.356614232E0
1.675105807E0,3.888215125E-2,-1.258610010E0,-1.090298176E0
1.676812615E0,4.719121456E-1,-3.515372574E-1,-8.010788560E-1
1.679185268E0,8.383631110E-1,1.896170676E-1,-4.708468914E-1
1.680924807E0,1.046622276E0,1.225054115E-1,-2.679139972E-1
1.683791124E0,1.250087857E0,-3.957457542E-1,-4.628573954E-1
1.685116230E0,1.483380795E0,-1.202150941E0,-1.266599417E0
1.687501191E0,1.109472990E0,-1.278849959E0,-1.543035507E0
1.689300768E0,4.026699662E-1,-1.109472990E0,-1.393365860E0
1.691581268E0,-5.486112088E-2,-9.022790194E-1,-1.114266634E0
1.693263345E0,3.994741663E-2,-9.049421549E-1,-9.235842824E-1
1.695643115E0,4.079962969E-1,-1.005609632E0,-7.653924823E-1
1.697371191E0,5.198490620E-1,-1.072721362E0,-4.697816372E-1
1.699780384E0,2.418150306E-1,-1.028512836E0,-1.603222936E-1
1.701475499E0,-7.243798673E-2,-8.431568146E-1,-1.565938741E-1
1.704350624E0,-1.406149119E-1,-9.262474179E-1,-4.719121456E-1
1.705979038E0,-5.699164793E-2,-1.224521518E0,-8.857674003E-1
1.708431047E0,-5.326322280E-3,-1.584048271E0,-1.106277108E0
1.709754730E0,2.024002373E-2,-1.539307117E0,-1.159007788E0
1.712501239E0,1.390170157E-1,-1.130245566E0,-1.065797091E0
1.713831461E0,3.004045784E-1,-8.186557293E-1,-8.197209835E-1
1.716605739E0,5.677859783E-1,-6.759102941E-1,-6.215817928E-1
1.717924268E0,9.859022498E-1,-7.803062201E-1,-6.482134461E-1
1.720709970E0,1.405083776E0,-6.934871674E-1,-9.550095797E-1
1.721959268E0,1.444498658E0,-4.527373910E-1,-1.172323585E0
1.724814431E0,9.262474179E-1,-2.998719513E-1,-1.061536074E0
1.726572345E0,2.024002373E-2,-2.833603323E-1,-8.793758154E-1
1.728853277E0,-1.043959185E-1,-5.081311464E-1,-8.878979087E-1
1.730037538E0,-9.587380290E-2,-1.098820329E0,-9.805759192E-1
1.732922970E0,-5.699164793E-2,-1.659682035E0,-9.225190282E-1
1.734159461E0,-2.167813182E-1,-2.028796196E0,-6.226470470E-1
1.737027124E0,-3.952131271E-1,-1.674063087E0,-3.952131271E-1
1.738253653E0,-3.526025414E-1,-1.181378245E0,-3.142530024E-1
1.741026884E0,-9.427590668E-2,-5.965480804E-1,-4.351605177E-1
1.742414538E0,4.900216311E-2,-6.455502510E-1,-5.299690962E-1
1.745235277E0,2.151834220E-1,-7.238472104E-1,-7.179882526E-1
1.746816615E0,3.435477912E-1,-7.227819562E-1,-9.123989940E-1
1.748721230E0,2.817624509E-1,-8.522115946E-1,-9.182579517E-1
1.750520807E0,2.295644879E-1,-9.960222840E-1,-8.942894936E-1
1.753042461E0,5.235774517E-1,-1.134506702E0,-1.021588564E0
1.754620268E0,1.074851871E0,-1.024251819E0,-1.238902569E0
1.757075691E0,1.360342741E0,-7.440872192E-1,-1.173921466E0
1.758895422E0,1.086037159E0,-2.130528986E-1,-8.058725595E-1
1.761142307E0,6.567355394E-1,2.402171344E-1,-4.500742257E-1
1.762903076E0,4.793690145E-1,3.568635881E-2,-3.462109566E-1
1.765721662E0,5.134574771E-1,-5.060006380E-1,-5.177185535E-1
1.767068307E0,4.026699662E-1,-1.321460605E0,-6.082659960E-1
1.769282615E0,-1.065264456E-2,-1.822667480E0,-5.805691481E-1
1.770995384E0,-3.707120419E-1,-1.763012648E0,-5.613943934E-1
1.773453768E0,-3.920173049E-1,-1.601625085E0,-5.720469952E-1
1.775059499E0,-1.518001854E-1,-1.189367771E0,-6.221144199E-1
1.777436922E0,1.288969964E-1,-8.447546959E-1,-5.608617067E-1
1.779056114E0,3.632551730E-1,-5.555354357E-1,-4.724447727E-1
1.781490153E0,5.171858668E-1,-1.379517466E-1,-5.001416802E-1
1.783204345E0,4.889563918E-1,-1.235706806E-1,-5.075985193E-1
1.786034777E0,3.456783295E-1,-5.049353242E-1,-5.960154533E-1
1.787681768E0,4.372910559E-1,-1.155279279E0,-1.135571957E0
1.790101508E0,5.512743592E-1,-1.227184653E0,-1.348092198E0
1.791425730E0,5.928196907E-1,-1.074851871E0,-1.498827100E0
1.794170623E0,2.476739883E-1,-6.791061163E-1,-1.193628788E0
1.795420807E0,-1.134506613E-1,-1.134506613E-1,-7.552725077E-1
1.798275585E0,-1.368864775E-1,-7.616640627E-2,-4.314320982E-1
1.799564499E0,1.118527651E-1,-3.776362538E-1,-3.733751774E-1
1.802380546E0,2.498045117E-1,-1.170725584E0,-3.238403797E-1
1.803815768E0,-1.544633508E-2,-1.518001795E0,-2.780340314E-1
1.806485316E0,-1.832254827E-1,-1.502555490E0,-3.861583769E-1
1.808305268E0,-1.262338310E-1,-1.446096539E0,-6.199839115E-1
1.810523123E0,9.693906456E-2,-1.158475041E0,-8.351673484E-1
1.811989961E0,3.568635881E-1,-1.049285531E0,-8.452873230E-1
1.814593546E0,6.157228351E-1,-7.254450917E-1,-7.920241356E-1
1.815919384E0,7.994809747E-1,-1.688444167E-1,-7.579356432E-1
1.818698892E0,8.181231022E-1,-6.125270575E-2,-5.896238685E-1
1.819980730E0,7.531419992E-1,-3.078614175E-1,-4.974785149E-1
1.822780268E0,7.909588814E-1,-7.068029642E-1,-6.807039976E-1
1.824124768E0,8.985505700E-1,-9.709885716E-1,-1.033306479E0
1.826909508E0,7.297061682E-1,-9.954896569E-1,-1.196292043E0
1.828644076E0,2.274339646E-1,-8.170578480E-1,-1.042361259E0
1.830420922E0,-2.109223604E-1,-4.681837261E-1,-8.277105093E-1
1.832219538E0,-2.519350350E-1,-5.209143162E-1,-6.599313021E-1
1.834671384E0,-4.101268202E-2,-7.419567108E-1,-5.906891227E-1
1.836291461E0,7.669904083E-2,-9.315737486E-1,-4.761732221E-1
1.838745999E0,-7.403588295E-2,-1.169127703E0,-2.764361203E-1
1.840428230E0,-2.343581766E-1,-1.026914954E0,-2.801645398E-1
1.842822345E0,-1.778991669E-1,-1.018925428E0,-4.724447727E-1
1.844585807E0,-7.989482954E-3,-9.443569183E-1,-7.510114312E-1
1.847394392E0,1.262338310E-1,-8.937568665E-1,-9.118663669E-1
1.848716422E0,2.412824035E-1,-8.213189244E-1,-8.980179429E-1
1.851047384E0,4.415521026E-1,-4.282363057E-1,-7.568703890E-1
1.852792230E0,5.145227313E-1,-3.920173049E-1,-5.715143681E-1
1.855251422E0,5.752428174E-1,-6.109291911E-1,-4.554005563E-1
1.856923422E0,7.478156686E-1,-8.681905270E-1,-5.938849449E-1
1.859391653E0,9.688580036E-1,-8.543421030E-1,-9.198558331E-1
1.861139807E0,8.815063238E-1,-6.498113275E-1,-1.067394972E0
1.863417076E0,4.191815555E-1,-3.350256681E-1,-9.262474179E-1
1.865117884E0,0.000000000E0,-8.415589482E-2,-7.297061682E-1
1.867942661E0,-8.255799860E-2,-2.982740402E-1,-6.008091569E-1
1.869586499E0,6.498113275E-2,-7.307714224E-1,-5.715143681E-1
1.872020161E0,1.225054115E-1,-1.097755075E0,-4.857605994E-1
1.873247230E0,-7.350324839E-2,-1.358212233E0,-2.833603323E-1
1.876090123E0,-2.988066673E-1,-1.177117229E0,-2.114549875E-1
1.877324038E0,-2.924150825E-1,-9.624664187E-1,-3.302319944E-1
1.880195277E0,-8.362326026E-2,-7.978830934E-1,-5.438175201E-1
1.881712307E0,1.390170157E-1,-7.344998717E-1,-6.625944972E-1
1.884300200E0,2.684466541E-1,-6.466155052E-1,-6.535397172E-1
1.885762422E0,2.908172011E-1,-3.318298757E-1,-6.167881489E-1
1.888404854E0,2.631203234E-1,-1.507349163E-1,-5.502091050E-1
1.890251114E0,3.424825370E-1,-5.944175720E-1,-5.278385282E-1
1.892451469E0,4.463458061E-1,-8.042746782E-1,-6.056028605E-1
1.893819961E0,7.249124646E-1,-1.042361259E0,-8.820389509E-1
1.896521084E0,8.852347732E-1,-8.026767969E-1,-1.090298176E0
1.898064499E0,6.609966159E-1,-4.048005044E-1,-9.353021979E-1
1.900625738E0,2.391518652E-1,5.219795927E-2,-6.050702333E-1
1.901976730E0,7.669904083E-2,2.024002522E-1,-4.032025933E-1
1.904551614E0,2.721750736E-1,-5.368933082E-1,-3.526025414E-1
1.906356422E0,2.764361203E-1,-1.034904361E0,-3.573962152E-1
1.908834431E0,1.970739290E-2,-1.421595454E0,-2.545982003E-1
1.910615114E0,-2.327602804E-1,-1.378984809E0,-2.498045117E-1
1.912286691E0,-2.290318608E-1,-1.160073042E0,-3.872236311E-1
1.914108345E0,-4.154531285E-2,-9.214537740E-1,-5.576659441E-1
1.916584076E0,1.752360016E-1,-5.821670294E-1,-6.578007936E-1
1.918202653E0,3.462109566E-1,-3.978762627E-1,-5.938849449E-1
1.920609999E0,4.266384244E-1,-1.033306494E-1,-5.225121975E-1
1.922403307E0,3.957457542E-1,1.587243974E-1,-4.953479767E-1
1.924699576E0,2.849582434E-1,-1.081243455E-1,-4.442152679E-1
1.926458845E0,2.556634545E-1,-6.599313021E-1,-5.358279943E-1
1.929294046E0,4.021373391E-1,-1.116929770E0,-8.239820600E-1
1.930662384E0,5.672533512E-1,-1.060470819E0,-1.136637211E0
1.932985384E0,4.314320982E-1,-6.876282096E-1,-1.088167667E0
1.934736191E0,4.846953228E-2,-1.480717659E-1,-7.435545921E-1
1.937198268E0,-1.331580579E-1,2.380866110E-1,-4.282363057E-1
1.938844537E0,1.118527725E-2,5.006742850E-2,-2.753708661E-1
1.941448961E0,2.508697808E-1,-4.601942301E-1,-2.652508616E-1
1.942965076E0,2.498045117E-1,-8.852347732E-1,-2.727077007E-1
1.945478114E0,-2.929477207E-2,-1.190965652E0,-2.205097377E-1
1.947065461E0,-2.929477394E-1,-1.170192957E0,-2.982740402E-1
1.949850507E0,-3.243730366E-1,-9.438242912E-1,-5.432848930E-1
1.951511114E0,7.456851192E-3,-3.531351686E-1,-8.644620776E-1
1.953929123E0,2.439455539E-1,-2.577939928E-1,-6.785734296E-1
1.955083576E0,3.360909224E-1,2.258360684E-1,-3.792341352E-1
1.957999238E0,2.657834888E-1,7.201187611E-1,-8.042746782E-2
1.959183653E0,1.896170676E-1,5.278385282E-1,1.837581247E-1
1.962103738E0,2.679139972E-1,-2.109223604E-1,2.077265680E-1
1.963288807E0,4.964132309E-1,-1.039165497E0,-5.379585549E-2
1.966208815E0,6.652576327E-1,-1.206944585E0,-4.846953154E-1
1.967436768E0,5.225121975E-1,-7.707188129E-1,-6.285060048E-1
1.970313584E0,8.522115648E-2,-1.411475390E-1,-3.653857112E-1
1.972091076E0,-2.183792144E-1,5.060006380E-1,-7.669904083E-2
1.974353507E0,-1.145159304E-1,5.331648588E-1,2.450108156E-2
1.975534691E0,2.130528986E-1,9.693906456E-2,-7.190535218E-2
1.978422546E0,3.579288721E-1,-4.612595141E-1,-1.906823367E-1
1.979609768E0,1.368864775E-1,-8.335694075E-1,-2.412824035E-1
1.982526661E0,-1.965412945E-1,-7.888283134E-1,-3.510046303E-1
1.983735153E0,-3.376888335E-1,-5.592638254E-1,-5.464806557E-1
1.986419614E0,-2.727077007E-1,-4.378236830E-1,-6.764429212E-1
1.987882345E0,-1.198422536E-1,-2.892192900E-1,-6.647250056E-1
1.990734161E0,4.953479767E-2,-2.487392575E-1,-4.463458061E-1
1.992858999E0,1.043959185E-1,1.326254308E-1,-9.960222989E-2
1.994211768E0,6.711166352E-2,2.663161159E-1,-2.822950855E-2
1.995989730E0,-3.195793182E-2,9.587380290E-2,8.681905270E-2
1.998394384E0,-1.757686399E-2,-4.117247164E-1,4.261057824E-3
2.000088768E0,1.794970632E-1,-8.825715780E-1,-3.206445873E-1
2.002583614E0,3.792341352E-1,-8.831042051E-1,-7.227819562E-1
2.004174884E0,3.174487948E-1,-4.079962969E-1,-8.165252209E-1
2.006544576E0,2.130528912E-3,9.960222989E-2,-5.028048158E-1
2.008284768E0,-8.948221803E-2,5.715143681E-1,-5.858954415E-2
2.011184084E0,2.311623842E-1,2.103897333E-1,2.982740477E-2
2.012457537E0,5.278385282E-1,-3.669835925E-1,1.384843793E-2
2.014816422E0,5.518069863E-1,-9.353021979E-1,5.432848632E-2
2.016525114E0,3.632551730E-1,-1.129180312E0,3.728425503E-2
2.019070807E0,2.269013226E-1,-9.166600704E-1,-1.374191195E-1
2.020646576E0,2.471413612E-1,-6.705839634E-1,-3.557983339E-1
2.023164999E0,3.648530841E-1,-2.727077007E-1,-5.118595958E-1
2.024885653E0,4.591289759E-1,-6.391586363E-2,-4.490089715E-1
2.027163191E0,4.506068528E-1,1.720402092E-1,-2.732403278E-1
2.028891845E0,3.190467060E-1,4.298342168E-1,-1.352885813E-1
2.031722007E0,1.294296384E-1,3.206445873E-1,-4.900216311E-2
2.033277537E0,1.544633508E-2,-2.854908705E-1,-5.432848632E-2
2.035789853E0,2.609897964E-2,-9.384979606E-1,-2.593919039E-1
2.037028268E0,7.563377917E-2,-1.073253989E0,-6.114618182E-1
2.039858276E0,-1.331580617E-2,-6.194512844E-1,-8.032094240E-1
2.041128653E0,-2.886866629E-1,-1.113201380E-1,-5.922870636E-1
2.043962353E0,-5.017395616E-1,3.227751255E-1,-2.370213419E-1
2.045211230E0,-4.207794666E-1,3.808320463E-1,5.326322280E-3
2.048067161E0,-1.491370201E-1,-8.522115648E-3,7.882957160E-2
2.049335114E0,6.285060197E-2,-5.166532397E-1,2.450108156E-2
2.052172007E0,6.391586363E-2,-9.656622410E-1,-2.290318534E-2
2.053911691E0,-1.006674916E-1,-1.087635040E0,-1.837581247E-1
2.056215238E0,-1.033306494E-1,-9.470201135E-1,-2.881540358E-1
2.057563884E0,1.225054078E-2,-6.141249537E-1,-4.745753109E-1
2.060284815E0,2.609897852E-1,-3.201119602E-1,-5.379585624E-1
2.061706999E0,6.119944453E-1,-1.864212751E-2,-3.286340833E-1
2.064389161E0,6.679208279E-1,2.695119083E-1,-1.496696621E-1
2.065695345E0,5.635249019E-1,3.818973005E-1,-2.503371425E-2
2.068327845E0,4.234426320E-1,7.456851192E-3,-3.195793368E-3
2.069780999E0,4.500742257E-1,-7.068029642E-1,-1.853560209E-1
2.072597815E0,6.279733777E-1,-1.259142637E0,-5.374259353E-1
2.074241191E0,7.169229984E-1,-1.094559193E0,-8.740494847E-1
2.076054191E0,4.607268870E-1,-4.154531360E-1,-8.303736448E-1
2.077855037E0,7.456851192E-3,2.514024079E-1,-4.362258017E-1
2.080316153E0,-2.151834220E-1,5.912217498E-1,-1.049285457E-1
2.081953730E0,-7.882957160E-2,3.472762108E-1,-2.556634694E-2
2.084402037E0,1.363538504E-1,-2.844256163E-1,-1.102548689E-1
2.086060653E0,5.432848632E-2,-8.804410696E-1,-1.539307088E-1
2.088495922E0,-3.350256681E-1,-1.267664671E0,-1.086569726E-1
2.090298768E0,-6.817692518E-1,-1.180845618E0,-1.933455020E-1
2.093064007E0,-6.881608367E-1,-9.709885716E-1,-4.063983858E-1
2.094303499E0,-4.143878818E-1,-7.882956862E-1,-5.672533512E-1
2.096632537E0,-4.580637068E-2,-5.305017233E-1,-5.512743592E-1
2.098410730E0,2.545982003E-1,-2.332929224E-1,-3.488741219E-1
2.100842999E0,4.117247164E-1,2.711097896E-1,-1.400822699E-1
2.102533653E0,4.191815555E-1,5.299690962E-1,2.822950855E-2
2.104848691E0,3.914846778E-1,1.672465205E-1,8.096009493E-2
2.106611307E0,5.587311983E-1,-5.672533512E-1,-1.475391239E-1
2.108981422E0,8.825715780E-1,-1.173921466E0,-5.992112756E-1
2.110587076E0,1.052481294E0,-1.119592905E0,-9.699232578E-1
2.113501737E0,5.235774517E-1,-2.279665917E-1,-6.492787004E-1
2.115023153E0,1.304948926E-1,3.723099232E-1,-1.933455020E-1
2.117578430E0,1.432780623E-1,4.399542212E-1,3.515372798E-2
2.118723576E0,4.101268053E-1,1.384843793E-2,2.716424316E-2
2.121648545E0,4.990763962E-1,-6.434197426E-1,-8.522115648E-3
2.122827999E0,1.874865443E-1,-1.196824670E0,3.621899337E-2
2.125752545E0,-2.966761589E-1,-1.225586772E0,-3.941478580E-2
2.126928460E0,-5.811017752E-1,-1.000283360E0,-2.695119083E-1
2.129832576E0,-5.736449361E-1,-8.335694075E-1,-5.102616549E-1
2.131053730E0,-3.850930929E-1,-6.508765817E-1,-5.906891227E-1
2.133961391E0,-1.603222936E-1,-5.342301130E-1,-4.575310946E-1
2.135761883E0,4.101268202E-2,-1.347559541E-1,-2.567287385E-1
2.138002307E0,1.214401498E-1,1.960086524E-1,-2.024002373E-2
2.139220883E0,9.001484513E-2,1.225054115E-1,1.528654546E-1
2.142078084E0,1.970739216E-1,-3.398193717E-1,5.858954415E-2
2.143252653E0,5.289037824E-1,-8.836368918E-1,-3.547330499E-1
2.146182737E0,8.602010608E-1,-9.123989940E-1,-8.532768488E-1
2.147372268E0,8.101336360E-1,-6.428871155E-1,-9.065400362E-1
2.150118268E0,3.989415467E-1,-1.150485575E-1,-5.358279943E-1
2.151556076E0,1.528654546E-1,2.918824553E-1,-1.299622655E-1
2.154391507E0,3.099919558E-1,2.183792144E-1,4.207794741E-2
2.156019883E0,6.897587180E-1,-5.262406468E-1,4.261057824E-2
2.157883460E0,6.530070901E-1,-8.575378656E-1,8.309062570E-2
2.159653114E0,3.637878001E-1,-1.257544637E0,1.304948926E-1
2.162110268E0,3.621899337E-2,-1.128647685E0,-1.384843793E-2
2.163778191E0,-1.187769845E-1,-8.719189763E-1,-2.790992856E-1
2.166191768E0,-9.800432622E-2,-6.194512844E-1,-4.772384763E-1
2.167948422E0,0.000000000E0,-5.555354357E-1,-4.628573954E-1
2.170354845E0,1.826928556E-1,-1.438107044E-1,-2.998719513E-1
2.172087499E0,1.928128600E-1,6.870955974E-2,-9.906959534E-2
2.174859622E0,8.255799860E-2,-1.544633508E-2,8.522115648E-2
2.176260768E0,1.107875034E-1,-3.925499618E-1,2.503371425E-2
2.178471576E0,3.866910040E-1,-8.111988902E-1,-3.456783295E-1
2.180210883E0,6.540724039E-1,-7.739146352E-1,-7.803062201E-1
2.182652268E0,4.953479767E-1,-4.676510990E-1,-7.994809747E-1
2.184359268E0,-3.728425596E-3,1.065264456E-2,-4.543353021E-1
2.186801383E0,-2.737729549E-1,2.806971967E-1,-1.310275346E-1
2.188448691E0,-7.669904083E-2,5.805691332E-2,-4.527373984E-2
2.190937999E0,3.067961633E-1,-4.591289759E-1,-8.415589482E-2
2.192623345E0,4.207794666E-1,-1.141963482E0,2.237055451E-2
2.195410968E0,2.588592768E-1,-1.396561742E0,1.193096191E-1
2.197046383E0,1.033306494E-1,-9.028116465E-1,-9.693906456E-2
2.199478237E0,1.384843737E-1,-7.472830415E-1,-2.151834220E-1
2.200671691E0,2.790992856E-1,-4.282363057E-1,-3.898867965E-1
2.203548237E0,4.213120937E-1,-3.472762108E-1,-3.914846778E-1
2.204837883E0,5.459480286E-1,-1.741707325E-1,-3.387540877E-1
2.207652199E0,5.874933600E-1,5.113269389E-2,-2.455434501E-1
2.208874845E0,4.543353021E-1,-7.989483327E-2,-5.592638254E-2
2.211756276E0,3.595267534E-1,-4.213120937E-1,-2.130528912E-3
2.213034383E0,4.846953154E-1,-8.426241875E-1,-2.189118415E-1
2.215859737E0,6.886934638E-1,-7.904262543E-1,-6.364955306E-1
2.217724230E0,3.557983339E-1,-3.169161677E-1,-6.471481323E-1
2.219898352E0,-1.619201899E-1,1.246359423E-1,-3.483414650E-1
2.221091076E0,-3.701793849E-1,2.103897333E-1,-1.480717659E-1
2.223966660E0,-2.151834220E-1,-1.118527651E-1,-1.560612470E-1
2.225189153E0,-2.929477207E-2,-6.135923266E-1,-1.805623323E-1
2.228070622E0,-1.342233270E-1,-1.215466738E0,-3.728425503E-2
2.229278614E0,-3.685815036E-1,-1.308144808E0,4.101268202E-2
2.232026653E0,-4.420847595E-1,-1.107874990E0,-6.178534031E-2
2.233404383E0,-2.828277051E-1,-7.904262543E-1,-2.950782478E-1
2.236276199E0,4.420847446E-2,-5.731122494E-1,-4.314320982E-1
2.237874499E0,3.989415467E-1,-5.507417321E-1,-3.744404614E-1
2.239741230E0,6.535397172E-1,-2.093244642E-1,-2.801645398E-1
2.241700153E0,6.886934638E-1,1.139832959E-1,-9.001484513E-2
2.244161960E0,5.230448246E-1,3.834952042E-2,1.235706806E-1
2.245735576E0,4.522047639E-1,-3.265035450E-1,5.805691332E-2
2.248108306E0,6.364955306E-1,-7.201187611E-1,-3.712446690E-1
2.249777114E0,8.074704409E-1,-8.921589851E-1,-8.000136018E-1
2.252161537E0,5.720469952E-1,-7.403587699E-1,-8.277105093E-1
2.253909037E0,7.190535218E-2,-2.796319127E-1,-5.459480286E-1
2.256741160E0,-1.688444167E-1,2.663161140E-3,-2.450108230E-1
2.258112230E0,4.261057824E-3,-8.362326026E-2,-1.310275346E-1
2.260286883E0,2.950782478E-1,-3.707120419E-1,-8.575379103E-2
2.261950768E0,2.657834888E-1,-8.910937309E-1,8.255799860E-2
2.264343691E0,-5.326322280E-3,-1.008272767E0,1.539307088E-1
2.266025653E0,-1.640507281E-1,-9.970875382E-1,2.503371425E-2
2.268536114E0,-1.075917110E-1,-9.635316730E-1,-2.689792812E-1
2.270183383E0,8.149272949E-2,-8.921589851E-1,-4.942827225E-1
2.272632806E0,2.396845073E-1,-8.207862377E-1,-5.022721887E-1
2.274282960E0,3.403519988E-1,-1.246359423E-1,-3.510046303E-1
2.277154583E0,3.765709996E-1,4.207794741E-2,-1.502022892E-1
2.278696768E0,4.548679292E-1,-1.794970632E-1,-2.822950855E-2
2.281220621E0,6.125270724E-1,-4.676510990E-1,-1.885518134E-1
2.282437806E0,7.760451436E-1,-5.246427655E-1,-5.597964525E-1
2.285288621E0,6.482134461E-1,-4.516721368E-1,-7.233145833E-1
2.286517960E0,1.858886480E-1,-3.733751774E-1,-5.773733258E-1
2.289391621E0,-1.693770438E-1,-1.832254827E-1,-4.356931746E-1
2.290638037E0,-1.347559541E-1,-3.611246645E-1,-3.573962152E-1
2.293494352E0,1.235706806E-1,-6.327670813E-1,-3.366235793E-1
2.294728614E0,2.572613657E-1,-9.534116983E-1,-1.390170157E-1
2.297596352E0,1.059938148E-1,-1.083373904E0,1.193096191E-1
2.299418268E0,-3.834952042E-2,-7.392935157E-1,1.496696621E-1
2.301636698E0,1.118527725E-2,-6.892260909E-1,2.290318534E-2
2.302877306E0,1.603222936E-1,-6.125270724E-1,-2.316950262E-1
2.305705237E0,3.089267015E-1,-6.673882008E-1,-4.037352204E-1
2.306977499E0,4.346278906E-1,-7.749798894E-1,-4.010720551E-1
2.309808429E0,5.054680109E-1,-6.354302764E-1,-3.169161677E-1
2.311085114E0,4.628573954E-1,-5.480785370E-1,-1.454086006E-1
2.313849691E0,4.266384244E-1,-5.752428174E-1,-4.367584363E-2
2.315189922E0,5.970807076E-1,-7.542072535E-1,-1.747033745E-1
2.318014891E0,9.001484513E-1,-6.386260390E-1,-5.656554103E-1
2.319722960E0,8.351673484E-1,-2.055960447E-1,-7.366303802E-1
2.321506806E0,5.757754445E-1,-6.444849819E-2,-6.135923266E-1
2.323359345E0,4.261057824E-2,2.892192900E-1,-3.850930929E-1
2.325833422E0,-1.693770438E-1,1.368864775E-1,-2.849582434E-1
2.327379922E0,-9.054747969E-2,-4.026699662E-1,-3.227751255E-1
2.329802922E0,-5.539375171E-2,-1.092428684E0,-2.790992856E-1
2.331556268E0,-3.259709179E-1,-1.660214663E0,-4.740426689E-2
2.334032422E0,-4.053331316E-1,-1.353418469E0,-5.965480953E-2
2.335703383E0,-2.577939928E-1,-9.395632744E-1,-1.560612470E-1
2.338490660E0,-2.663161233E-2,-6.732471585E-1,-1.864212751E-1
2.339782999E0,2.396845073E-1,-4.580637217E-1,-1.949433982E-1
2.342153883E0,5.129248500E-1,-3.254382908E-1,-2.183792144E-1
2.343864153E0,6.562029123E-1,-3.025351167E-1,-2.119876295E-1
2.346338768E0,6.327670813E-1,-4.042678475E-1,-2.013349831E-1
2.348080653E0,6.423544884E-1,-6.796387434E-1,-2.956108749E-1
2.350329114E0,8.154599667E-1,-8.223841786E-1,-6.050702333E-1
2.352062768E0,1.010403395E0,-6.354302764E-1,-9.022790194E-1
2.354496768E0,8.820389509E-1,-4.617921412E-1,-7.930893898E-1
2.356221653E0,4.932174385E-1,-5.965480953E-2,-4.868258536E-1
2.359028390E0,2.583266199E-1,1.374191195E-1,-2.226402760E-1
2.360579691E0,2.764361203E-1,-2.018676102E-1,-7.510114461E-2
2.363103967E0,2.796319127E-1,-5.725796223E-1,-6.018744037E-2
2.364288691E0,6.551376730E-2,-1.170725584E0,3.728425503E-2
2.367172852E0,-2.620550692E-1,-1.374723792E0,3.036003746E-2
2.368411076E0,-4.287689328E-1,-1.323058486E0,-1.262338310E-1
2.371276583E0,-3.366235793E-1,-1.234641552E0,-3.179814517E-1
2.372522499E0,-1.336906850E-1,-1.053546548E0,-4.111920893E-1
2.375380006E0,1.262338310E-1,-7.030745149E-1,-4.186489284E-1
2.376706114E0,4.058657587E-1,-3.595267534E-1,-3.312972486E-1
2.379483083E0,5.267732739E-1,-7.616640627E-2,-1.134506613E-1
2.381759114E0,4.980111420E-1,-1.933455020E-1,-1.070590764E-1
2.383528006E0,5.912217498E-1,-5.635249019E-1,-3.515372574E-1
2.384749153E0,7.568703890E-1,-6.066681147E-1,-7.962851524E-1
2.387596467E0,6.966829300E-1,-6.700513363E-1,-9.139968753E-1
2.388846306E0,2.732403278E-1,-5.960154533E-1,-6.471481323E-1
2.391700083E0,-6.072007492E-2,-2.988066673E-1,-3.707120419E-1
2.392959460E0,-7.456851192E-3,-4.474110603E-1,-1.645833552E-1
2.395637499E0,2.498045117E-1,-7.099987864E-1,-1.022653878E-1
2.397161076E0,3.707120419E-1,-1.057807565E0,8.522115648E-3
2.399906544E0,2.332929224E-1,-1.181378245E0,1.161138266E-1
2.401569460E0,2.876213938E-2,-9.677927494E-1,7.776430249E-2
2.403383114E0,-8.522115648E-3,-7.744472623E-1,-1.054611802E-1
2.405195191E0,1.086569726E-1,-7.968178391E-1,-2.785666585E-1
2.407714460E0,2.721750736E-1,-8.500810266E-1,-3.856257200E-1
2.409314191E0,4.362258017E-1,-6.929545403E-1,-4.293015897E-1
2.411761076E0,4.932174385E-1,-5.885586143E-1,-2.833603323E-1
2.413464229E0,4.362258017E-1,-5.336974859E-1,-1.161138266E-1
2.415782076E0,5.289037824E-1,-5.432848930E-1,-1.320927888E-1
2.417524960E0,7.925567627E-1,-6.290386319E-1,-3.712446690E-1
2.420361890E0,1.009870648E0,-4.053331316E-1,-6.838997602E-1
2.421884114E0,8.234494328E-1,-2.753708661E-1,-6.311691999E-1
2.424142191E0,2.950782478E-1,-8.788431436E-2,-3.808320463E-1
2.426053306E0,-5.592638254E-2,3.036003746E-2,-2.759034932E-1
2.428229460E0,-6.391586736E-3,-4.277036786E-1,-3.062635362E-1
2.429982845E0,1.629854590E-1,-1.027980208E0,-3.563309610E-1
2.432201576E0,6.924218684E-2,-1.615473509E0,-1.661812514E-1
2.433973883E0,-7.350324839E-2,-1.378984809E0,-6.125270575E-2
2.436397537E0,-1.438106969E-2,-9.800432920E-1,-7.989483327E-2
2.438070152E0,1.949433982E-1,-6.418218613E-1,-1.475391239E-1
2.440907390E0,3.989415467E-1,-4.703142643E-1,-1.741707325E-1
2.442725652E0,5.635249019E-1,-3.962783813E-1,-1.757686287E-1
2.444984775E0,6.450176239E-1,-4.596616030E-1,-1.251685768E-1
2.446219883E0,5.656554103E-1,-6.471481323E-1,-7.563377917E-2
2.449053005E0,4.980111420E-1,-8.325041533E-1,-1.432780623E-1
2.450313806E0,5.912217498E-1,-1.094559193E0,-3.403519988E-1
2.453156121E0,7.776430249E-1,-9.022790194E-1,-6.540724039E-1
2.454365922E0,7.595335841E-1,-5.241101384E-1,-7.078682184E-1
2.457258967E0,4.197141826E-1,-1.731054783E-1,-4.351605177E-1
2.458641383E0,1.107875034E-1,1.544633508E-1,-2.045307755E-1
2.461361544E0,1.241033077E-1,-7.297061384E-2,-1.368864775E-1
2.463272883E0,3.041329980E-1,-9.060074091E-1,-2.082591951E-1
2.465398813E0,2.551308274E-1,-1.220793009E0,-1.789644361E-1
2.466597306E0,-2.450108156E-2,-1.532382965E0,-1.059938148E-1
2.469467198E0,-2.828277051E-1,-1.393898487E0,-1.390170157E-1
2.470779652E0,-2.583266199E-1,-1.152083516E0,-2.625876963E-1
2.473570544E0,-2.450108156E-2,-1.000283360E0,-3.355582952E-1
2.474776883E0,2.322276533E-1,-7.824367285E-1,-3.094593287E-1
2.477486076E0,4.340952635E-1,-5.320996046E-1,-2.018676102E-1
2.478932268E0,4.862932265E-1,-2.055960447E-1,-6.231797114E-2
2.481776813E0,3.701793849E-1,-2.695119083E-1,8.788431436E-2
2.483460422E0,4.218447208E-1,-8.655273914E-1,-7.829693705E-2
2.485331229E0,5.134574771E-1,-1.024784446E0,-2.727077007E-1
2.487068652E0,6.796387434E-1,-1.004544377E0,-6.876282096E-1
2.489534460E0,3.440804183E-1,-7.259777188E-1,-5.965480804E-1
2.491193614E0,1.331580617E-2,-3.547330499E-1,-3.201119602E-1
2.493675652E0,1.054611802E-1,-2.705771625E-1,-1.960086524E-1
2.495249883E0,4.884237647E-1,-5.070658922E-1,-1.858886480E-1
2.497947345E0,7.142598033E-1,-9.166600704E-1,-1.086569726E-1
2.499407537E0,6.391586661E-1,-1.185106754E0,2.716424316E-2
2.502244121E0,4.878911078E-1,-1.134506702E0,5.006742850E-2
2.503661422E0,4.335626364E-1,-9.086706042E-1,-1.257012039E-1
2.506210037E0,4.697816372E-1,-8.048073053E-1,-2.865561247E-1
2.507517383E0,5.075985193E-1,-9.321063757E-1,-3.105245829E-1
2.509962229E0,6.066681147E-1,-8.538094759E-1,-3.238403797E-1
2.511703576E0,7.227819562E-1,-7.259777188E-1,-2.514024079E-1
2.513934152E0,6.370281577E-1,-7.174556255E-1,-3.728425503E-2
2.515785960E0,4.878911078E-1,-7.270429730E-1,1.017327532E-1
2.518143576E0,5.384911895E-1,-9.203884602E-1,4.793690052E-3
2.519862422E0,7.142598033E-1,-8.351673484E-1,-3.643204570E-1
2.522666159E0,6.838997602E-1,-6.040049195E-1,-6.056028605E-1
2.524250345E0,2.711097896E-1,-4.426173866E-1,-4.751079381E-1
2.526733428E0,-1.693770438E-1,-2.673813701E-1,-3.062635362E-1
2.527984691E0,-2.114549875E-1,-3.914846778E-1,-2.817624509E-1
2.530801736E0,1.278317347E-2,-7.680556774E-1,-3.366235793E-1
2.532108922E0,1.267664731E-1,-1.216531992E0,-2.727077007E-1
2.534904813E0,3.834952042E-2,-1.405083776E0,-1.209075153E-1
2.536132460E0,-4.367584363E-2,-1.145159245E0,-7.829693705E-2
2.539008582E0,1.864212751E-2,-7.898935676E-1,-1.704423130E-1
2.540311999E0,1.565938741E-1,-6.146575809E-1,-2.295644879E-1
2.543112544E0,3.376888335E-1,-7.286409140E-1,-2.002697140E-1
2.544845268E0,4.442152679E-1,-6.466155052E-1,-2.215750068E-1
2.547153697E0,3.936152160E-1,-7.243798375E-1,-1.187769845E-1
2.548529422E0,2.471413612E-1,-8.452873230E-1,-1.331580617E-2
2.551222351E0,3.275688291E-1,-1.156344533E0,-4.367584363E-2
2.552517152E0,6.727145314E-1,-1.265001535E0,-3.472762108E-1
2.555325390E0,1.030110717E0,-9.262474179E-1,-6.593986750E-1
2.556731922E0,1.022653818E0,-7.004113793E-1,-4.905542731E-1
2.559285075E0,6.604639888E-1,-2.391518652E-1,-1.587243974E-1
2.560879768E0,4.404868484E-1,1.315601617E-1,-2.876213938E-2
2.563531851E0,5.358279943E-1,-1.597896665E-1,-8.894958347E-2
2.565182845E0,6.322344542E-1,-7.153250575E-1,-2.173139453E-1
2.567070999E0,4.889563918E-1,-1.360342741E0,-2.093244642E-1
2.568893037E0,1.949433982E-1,-1.495098710E0,-1.970739216E-1
2.571323614E0,3.142530099E-2,-1.271925807E0,-2.396845073E-1
2.572960345E0,7.563377917E-2,-9.816411734E-1,-2.599245310E-1
2.575445999E0,2.002697140E-1,-8.388957381E-1,-1.693770438E-1
2.577055229E0,3.845604658E-1,-6.689860821E-1,-6.391586363E-2
2.579419806E0,6.183860302E-1,-5.352953672E-1,2.130528912E-2
2.581299883E0,6.657902598E-1,-5.581985712E-1,1.502022892E-1
2.583999005E0,5.310343504E-1,-6.332997084E-1,1.970739216E-1
2.585375806E0,5.331648588E-1,-1.018392801E0,5.486112088E-2
2.587718268E0,7.829693556E-1,-1.272458434E0,-3.600593805E-1
2.589895191E0,1.032773852E0,-1.110005617E0,-7.632619739E-1
2.591841460E0,8.676578999E-1,-7.238472104E-1,-7.052050829E-1
2.593534422E0,3.600593805E-1,-8.415589482E-2,-3.637878001E-1
2.595905806E0,3.515372798E-2,1.613875628E-1,3.408846259E-2
2.597715499E0,1.741707325E-1,-3.323625028E-1,9.267801046E-2
2.600079729E0,1.853560209E-1,-1.008805394E0,1.320927888E-1
2.601855999E0,-8.362326026E-2,-1.553688169E0,2.322276533E-1
2.604536582E0,-4.175836742E-1,-1.612277746E0,2.364887148E-1
2.606145383E0,-5.342301130E-1,-1.380582690E0,1.027980223E-1
2.608611313E0,-4.245078862E-1,-1.173388839E0,-1.597896684E-3
2.609804152E0,-2.024002522E-1,-1.065264463E0,1.171790902E-2
2.612679274E0,1.288969964E-1,-7.744472623E-1,1.810949668E-2
2.613991999E0,4.506068528E-1,-4.905542731E-1,5.645901710E-2
2.616783082E0,5.864281058E-1,-1.784317940E-1,1.012001261E-1
2.618131768E0,6.295713186E-1,-2.141181529E-1,1.358212233E-1
2.620886736E0,7.600662112E-1,-4.644553065E-1,-4.101268202E-2
2.622174075E0,1.005077004E0,-4.932174385E-1,-4.298342168E-1
2.624990197E0,1.040763378E0,-5.896238685E-1,-5.523396134E-1
2.626812229E0,4.362258017E-1,-4.021373391E-1,-1.422128081E-1
2.629036428E0,2.535329461E-1,-3.430151641E-1,1.597896591E-2
2.630272999E0,1.933455020E-1,-4.751079381E-1,2.327602804E-1
2.633104659E0,3.920173049E-1,-8.612663150E-1,3.169161677E-1
2.634329306E0,5.262406468E-1,-1.148887753E0,3.659183383E-1
2.637208197E0,4.079962969E-1,-1.306546807E0,4.974785149E-1
2.638471075E0,1.629854590E-1,-1.148355126E0,5.299690962E-1
2.641311466E0,3.462109342E-2,-6.870955825E-1,3.270362020E-1
2.642722652E0,4.474110901E-2,-4.841626883E-1,7.350324839E-2
2.645415120E0,1.320927888E-1,-5.102616549E-1,-1.171790883E-1
2.647078922E0,3.723099232E-1,-6.918892860E-1,-2.050634027E-1
2.648916729E0,4.399542212E-1,-5.363606811E-1,-1.502022892E-1
2.650814229E0,3.552657068E-1,-3.147856593E-1,1.544633508E-2
2.653232229E0,2.519350350E-1,-4.165183902E-1,2.300971150E-1
2.654842998E0,2.892192900E-1,-6.476807594E-1,2.364887148E-1
2.657318652E0,4.596616030E-1,-7.760451436E-1,1.651159860E-2
2.658963537E0,5.049353242E-1,-7.392935157E-1,-1.661812514E-1
2.661357652E0,2.545982003E-1,-6.008091569E-1,-1.123853996E-1
2.663042845E0,-5.592638254E-2,-4.159857631E-1,4.740426689E-2
2.665882082E0,-1.012001261E-1,-4.836300611E-1,1.411475390E-1
2.667391806E0,1.209075153E-1,-8.159925938E-1,1.155811921E-1
2.669548729E0,3.930825889E-1,-1.060470819E0,3.355583176E-2
2.671331614E0,4.862932265E-1,-1.180845618E0,4.900216311E-2
2.674008037E0,3.808320463E-1,-9.699232578E-1,1.017327532E-1
2.675501614E0,2.663161159E-1,-6.631271243E-1,9.108011425E-2
2.677784806E0,3.169161677E-1,-4.538026452E-1,-1.810949668E-2
2.679681575E0,4.122573435E-1,-4.926848114E-1,-1.182443574E-1
2.682135191E0,3.989415467E-1,-5.677859783E-1,-1.267664731E-1
2.683601960E0,2.524676621E-1,-7.531419992E-1,2.396845073E-2
2.686429005E0,9.161274135E-2,-9.193232059E-1,1.486043930E-1
2.688254883E0,1.901497096E-1,-1.071123362E0,9.693906456E-2
2.690509428E0,2.641855776E-1,-1.158475041E0,7.030745596E-2
2.691729268E0,3.680488765E-1,-1.115864515E0,1.597896684E-3
2.694578235E0,4.490089715E-1,-1.059405446E0,9.587380104E-3
2.695860652E0,5.326322317E-1,-8.575378656E-1,-4.793690052E-3
2.698682428E0,6.530070901E-1,-2.364887148E-1,-1.528654546E-1
2.699925152E0,6.061354876E-1,-9.267801046E-2,-1.299622655E-1
2.702786581E0,4.069310129E-1,-1.944107562E-1,-1.917476021E-2
2.704082075E0,2.109223604E-1,-4.884237647E-1,4.314320907E-2
2.706889235E0,1.486043930E-1,-9.795106649E-1,2.130528912E-3
2.708717845E0,2.071939409E-1,-1.368864775E0,-1.123853996E-1
2.710927197E0,2.577939928E-1,-1.462075472E0,-1.821602285E-1
2.712151768E0,2.146507949E-1,-1.211738348E0,-9.853696078E-2
2.714995351E0,1.017327532E-1,-8.117315173E-1,1.038632840E-1
2.716279075E0,1.059938148E-1,-4.554005563E-1,2.306297570E-1
2.719098312E0,2.631203234E-1,-2.561961114E-1,1.928128600E-1
2.720440383E0,4.074636400E-1,-3.531351686E-1,1.022653878E-1
2.723145075E0,3.611246645E-1,-5.331648588E-1,3.888215125E-2
2.724533806E0,1.416801661E-1,-7.446198463E-1,-1.065264456E-3
2.727304581E0,-2.130528912E-3,-8.761799932E-1,-1.384843737E-1
2.728960268E0,1.075917110E-1,-1.021055937E0,-3.296993375E-1
2.730948075E0,3.850930929E-1,-1.207477212E0,-3.989415467E-1
2.732632768E0,5.944175720E-1,-1.121190786E0,-2.780340314E-1
2.735058883E0,6.077333689E-1,-8.175904751E-1,3.515372798E-2
2.736795229E0,5.033374429E-1,-3.478088379E-1,2.860234976E-1
2.739170152E0,4.538026452E-1,-1.597896665E-1,3.696467578E-1
2.740866806E0,4.447479248E-1,-2.636529505E-1,2.258360684E-1
2.743239383E0,3.456783295E-1,-5.832322836E-1,1.810949668E-2
2.744975998E0,1.171790883E-1,-1.026382327E0,-1.033306494E-1
2.747766120E0,-1.113201380E-1,-1.307079434E0,-1.667138934E-1
2.749168383E0,-4.580637068E-2,-1.437574387E0,-2.167813182E-1
2.751409998E0,8.415589482E-2,-1.367266893E0,-2.231729031E-1
2.753065114E0,3.568635881E-1,-1.051416039E0,-1.693770438E-1
2.755518498E0,4.740426838E-1,-5.944175720E-1,-6.924218964E-3
2.757293345E0,3.573962152E-1,1.145159304E-1,1.283643693E-1
2.759622960E0,2.615224123E-1,9.906959534E-2,2.290318534E-2
2.761236191E0,2.077265680E-1,-2.530003190E-1,-2.029328793E-1
2.763775998E0,8.735168725E-2,-7.749798894E-1,-3.957457542E-1
2.765757114E0,-1.352885813E-1,-1.187237263E0,-4.085289240E-1
2.768179120E0,-3.637878001E-1,-1.425323844E0,-2.615224123E-1
2.770330075E0,-2.300971150E-1,-1.503620744E0,-4.474110901E-2
2.772224350E0,-2.876213938E-2,-1.466869116E0,-1.704423130E-2
2.773528075E0,4.452805519E-1,-1.110005617E0,-4.953479767E-2
2.776292389E0,7.099987864E-1,-4.974785149E-1,-2.556634694E-2
2.777584998E0,5.736449361E-1,2.237055451E-2,1.576591432E-1
2.780395696E0,2.391518652E-1,3.025351167E-1,2.535329461E-1
2.781724614E0,7.137271762E-2,4.207794741E-2,9.321063757E-2
2.784499235E0,1.166464612E-1,-6.269081235E-1,-2.455434501E-1
2.785921037E0,1.320927888E-1,-1.328917384E0,-4.868258536E-1
2.788602504E0,-4.793690145E-2,-1.619202018E0,-4.511395097E-1
2.790340960E0,-2.982740402E-1,-1.197357297E0,-8.522115648E-2
2.792644196E0,-2.247707993E-1,-1.025317073E0,3.888215125E-2
2.793949152E0,1.661812514E-1,-8.181231022E-1,2.114549875E-1
2.796712543E0,6.711165905E-1,-6.546050310E-1,2.327602804E-1
2.798698460E0,9.853696227E-1,-4.596616030E-1,1.928128600E-1
2.800816504E0,9.129316211E-1,-2.258360684E-1,1.587243974E-1
2.802075691E0,5.688512325E-1,-3.142530099E-2,7.510114461E-2
2.804871537E0,2.918824553E-1,-2.311623842E-1,-9.214537591E-2
2.806251345E0,2.769687474E-1,-7.600662112E-1,-3.339604139E-1
2.809024235E0,4.420847595E-1,-1.318797350E0,-4.873584807E-1
2.810847075E0,4.724447727E-1,-1.297492146E0,-2.737729549E-1
2.812564191E0,3.142530024E-1,-7.627293468E-1,9.853696078E-2
2.814376114E0,2.700445354E-1,-3.707120419E-1,4.218447208E-1
2.816796460E0,4.484763443E-1,-2.908172011E-1,5.038700700E-1
2.818573421E0,6.439523697E-1,-4.724447727E-1,3.664509654E-1
2.820932537E0,5.725796223E-1,-6.364955306E-1,1.752360016E-1
2.822623229E0,1.587243974E-1,-6.620618701E-1,3.941478580E-2
2.824853729E0,-3.249056637E-1,-7.313040495E-1,-3.515372798E-2
2.826637575E0,-5.454154015E-1,-9.289106131E-1,-1.555286050E-1
2.829434850E0,-4.143878818E-1,-1.152083516E0,-3.163835406E-1
2.831249383E0,-1.059938148E-1,-1.209075212E0,-3.776362538E-1
2.833085037E0,1.512675583E-1,-9.358348250E-1,-2.455434501E-1
2.835198152E0,2.396845073E-1,-3.978762627E-1,4.474110901E-2
2.837360652E0,2.274339646E-1,6.072007492E-2,3.211772442E-1
2.839072152E0,2.833603323E-1,8.415589482E-2,4.095941782E-1
2.841348998E0,4.506068528E-1,-3.563309610E-1,2.524676621E-1
2.843046383E0,5.954828262E-1,-8.783105612E-1,-5.645901710E-2
2.845480037E0,5.486112237E-1,-1.196292043E0,-2.790992856E-1
2.847122537E0,2.817624509E-1,-1.100418210E0,-2.972087860E-1
2.849974465E0,2.396845073E-2,-7.808388472E-1,-1.667138934E-1
2.851630114E0,1.352885813E-1,-5.203816891E-1,4.207794741E-2
2.854050081E0,2.940129936E-1,-5.656554103E-1,9.480853379E-2
2.855552191E0,6.034722924E-1,-6.865629554E-1,1.592570394E-1
2.858118042E0,7.110640407E-1,-6.242449880E-1,1.848233789E-1
2.859538921E0,5.225121975E-1,-3.957457542E-1,1.778991669E-1
2.862221350E0,2.247707993E-1,-2.508697808E-1,1.241033077E-1
2.863441960E0,3.195793182E-2,-4.639226794E-1,-2.130528912E-3
2.866324465E0,2.663161233E-2,-1.054611802E0,-2.860234976E-1
2.867626383E0,4.580637068E-2,-1.234641552E0,-3.755057156E-1
2.870427504E0,-3.994741663E-2,-1.014664412E0,-3.131877482E-1
2.872242268E0,-1.752360016E-1,-4.990763962E-1,-1.597896665E-1
2.874486350E0,-2.253034264E-1,-1.027980223E-1,-4.793690052E-3
2.875664421E0,-1.411475390E-1,-7.882957160E-2,8.362326026E-2
2.878554235E0,1.438106969E-2,-3.627225459E-1,7.936219871E-2
2.879763460E0,1.187769845E-1,-8.096010089E-1,4.420847446E-2
2.882657504E0,9.534116834E-2,-1.082308650E0,2.663161140E-3
2.883884306E0,-1.438106969E-2,-1.071123362E0,-4.846953228E-2
2.886761773E0,-9.108011425E-2,-9.209211469E-1,-7.190535218E-2
2.888205075E0,1.757686399E-2,-9.155948162E-1,-6.072007492E-2
2.890866235E0,2.498045117E-1,-8.186557293E-1,-1.235706806E-1
2.892569498E0,5.981460214E-1,-7.366303802E-1,-1.597896665E-1
2.894626075E0,8.889631629E-1,-7.430219650E-1,-1.512675583E-1
2.896171498E0,9.912285805E-1,-2.551308274E-1,-2.093244642E-1
2.898682652E0,8.362326026E-1,7.882957160E-2,-1.763012707E-1
2.900308729E0,5.597964525E-1,2.077265680E-1,-1.246359423E-1
2.902749498E0,3.233077526E-1,-9.161274135E-2,-1.107875034E-1
2.904388421E0,1.896170676E-1,-6.285060048E-1,-1.432780623E-1
2.906786460E0,1.150485575E-1,-1.314536333E0,-1.081243455E-1
2.908509229E0,3.888215125E-2,-1.709749460E0,-4.261057824E-3
2.911348158E0,-3.994741663E-2,-1.551025033E0,9.374327213E-2
2.912646844E0,-7.829693705E-2,-1.095624447E0,1.869539171E-1
2.915027460E0,1.704423130E-2,-5.608617067E-1,2.402171344E-1
2.916721883E0,1.869539171E-1,-4.303668439E-1,1.033306494E-1
2.919161114E0,3.355582952E-1,-3.888215125E-1,-1.619201899E-1
2.920896460E0,3.344930410E-1,-3.925499618E-1,-3.925499618E-1
2.923259306E0,1.374191195E-1,-3.739078343E-1,-5.246427655E-1
2.924970960E0,-1.049285457E-1,-3.286340833E-1,-5.826996565E-1
2.927406191E0,-2.253034264E-1,-4.149205089E-1,-5.587311983E-1
2.929141498E0,-1.528654546E-1,-6.870955825E-1,-4.399542212E-1
2.931903850E0,9.534116834E-2,-1.124386668E0,-2.055960447E-1
2.933526998E0,3.925499618E-1,-1.415736437E0,5.965480953E-2
2.935983850E0,6.072007418E-1,-1.263936281E0,2.588592768E-1
2.937181883E0,6.418218613E-1,-8.511462808E-1,3.866910040E-1
2.940053196E0,5.305017233E-1,-4.644553065E-1,4.170510471E-1
2.941292768E0,4.266384244E-1,-3.467435837E-1,2.588592768E-1
2.944156811E0,4.649879336E-1,-5.475459099E-1,-7.723167539E-2
2.945364037E0,5.704491138E-1,-9.081379771E-1,-4.436826408E-1
2.948261042E0,6.226470470E-1,-1.177117229E0,-6.402239203E-1
2.949533844E0,5.576659441E-1,-1.073253989E0,-6.380934119E-1
2.952365196E0,4.282363057E-1,-6.210491657E-1,-4.948153496E-1
2.954117498E0,3.089267015E-1,-1.470064968E-1,-1.464738697E-1
2.956404003E0,2.945456207E-1,-1.528654546E-1,-4.154531285E-2
2.957709114E0,2.828277051E-1,-3.685815036E-1,9.640643001E-2
2.960473503E0,2.183792144E-1,-8.133293986E-1,1.619201899E-1
2.961684575E0,2.396845073E-2,-1.210673094E0,1.486043930E-1
2.964578157E0,-2.636529505E-1,-1.326254249E0,3.781688958E-2
2.965809844E0,-5.028048158E-1,-1.282578349E0,-1.294296384E-1
2.968682580E0,-5.033374429E-1,-1.060470819E0,-4.101268053E-1
2.970091075E0,-2.727077007E-1,-8.527442217E-1,-5.155879855E-1
2.972787696E0,2.237055451E-2,-5.512743592E-1,-4.990763962E-1
2.974526537E0,2.668487430E-1,-2.982740402E-1,-3.328951299E-1
2.976299691E0,4.159857631E-1,-1.235706806E-1,-1.358212233E-1
2.978253844E0,4.751079381E-1,-1.177117229E-1,-2.503371425E-2
2.980595883E0,4.692489803E-1,-3.930825889E-1,-3.621899337E-2
2.982225114E0,4.143878818E-1,-8.101336360E-1,-1.523328125E-1
2.984639460E0,3.073287904E-1,-1.248489976E0,-2.684466541E-1
2.986335460E0,1.651159972E-1,-1.487641811E0,-3.105245829E-1
2.988701575E0,3.994741663E-2,-1.435976505E0,-2.673813701E-1
2.990450498E0,-2.343581803E-2,-1.167529821E0,-1.619201899E-1
2.993259888E0,-2.130528912E-2,-7.675230503E-1,-7.084008306E-2
2.994638883E0,2.503371425E-2,-4.335626364E-1,-3.302319720E-2
2.996856344E0,9.108011425E-2,-3.265035450E-1,-6.391586363E-2
2.998497152E0,1.507349163E-1,-4.058657587E-1,-1.651159972E-1
3.000951614E0,1.816275865E-1,-6.311691999E-1,-2.785666585E-1
3.002634383E0,2.002697140E-1,-9.225190282E-1,-3.446130455E-1
3.005163960E0,2.316950262E-1,-1.131310821E0,-3.733751774E-1
3.007022575E0,2.972087860E-1,-1.128647685E0,-3.717772961E-1
3.009380883E0,3.984089196E-1,-9.811085463E-1,-3.281014562E-1
3.010954652E0,5.166532397E-1,-7.281082273E-1,-2.498045117E-1
3.013676965E0,6.125270724E-1,-5.097290277E-1,-1.464738697E-1
3.015268652E0,6.162554622E-1,-3.542004228E-1,-3.195793182E-2
3.017744157E0,5.693838596E-1,-3.973436356E-1,-9.054748341E-3
3.019135383E0,4.170510471E-1,-6.205165386E-1,-9.054748341E-3
3.021814119E0,2.434129268E-1,-8.948221207E-1,-1.054611802E-1
3.023168191E0,1.166464612E-1,-1.182443500E0,-2.492718846E-1
3.025919465E0,6.711166352E-2,-1.332113147E0,-4.154531360E-1
3.027161075E0,1.012001261E-1,-1.173388839E0,-3.893541694E-1
3.030024542E0,1.571265012E-1,-8.820389509E-1,-2.450108230E-1
3.031695844E0,2.428802997E-1,-5.938849449E-1,-7.669904083E-2
3.034129388E0,3.536677957E-1,-4.623247683E-1,1.384843793E-2
3.035884460E0,4.436826408E-1,-4.767058492E-1,-3.142530099E-2
3.038173580E0,4.282363057E-1,-5.747101903E-1,-1.768338978E-1
3.039405191E0,2.748382390E-1,-6.769755483E-1,-3.291667104E-1
3.042243349E0,3.994741663E-2,-7.803062201E-1,-4.170510471E-1
3.043518267E0,-1.752360016E-1,-8.745821118E-1,-4.175836742E-1
3.046348965E0,-3.147856593E-1,-9.816411734E-1,-3.270362020E-1
3.047950883E0,-3.760383427E-1,-1.035969734E0,-1.885518134E-1
3.050337498E0,-3.904194236E-1,-1.023186564E0,-5.113269389E-2
3.051905075E0,-3.691141307E-1,-9.134642482E-1,1.597896591E-2
3.054560272E0,-3.206445873E-1,-7.728493810E-1,-3.195793368E-3
3.056388767E0,-1.954760253E-1,-7.163903713E-1,-1.225054115E-1
3.058144152E0,-1.262338310E-1,-7.408914566E-1,-1.757686287E-1
3.059891037E0,6.870955974E-2,-8.974853158E-1,-2.663161159E-1
3.062342075E0,3.302319944E-1,-1.024784446E0,-3.408846259E-1
3.064030114E0,6.109291911E-1,-1.065264463E0,-3.701793849E-1
3.066562229E0,8.527442217E-1,-9.369000793E-1,-3.531351686E-1
3.068124460E0,1.028512836E0,-6.609966159E-1,-3.179814517E-1
3.070478229E0,1.129180312E0,-4.133225977E-1,-2.636529505E-1
3.072348152E0,1.119060278E0,-2.641855776E-1,-2.146507949E-1
3.075042157E0,9.757822156E-1,-2.940129936E-1,-1.704423130E-1
3.076408998E0,5.736449361E-1,-6.844323874E-1,-1.166464612E-1
3.078993652E0,2.418150306E-1,-1.027447581E0,-1.123853996E-1
3.080405421E0,-8.681905270E-2,-1.255414128E0,-1.368864775E-1
3.082835306E0,-3.435477912E-1,-1.373658538E0,-1.587243974E-1
3.084508729E0,-4.580637217E-1,-1.372593284E0,-1.699096859E-1
3.086963921E0,-4.175836742E-1,-1.200553060E0,-1.880191714E-1
3.088777344E0,-2.844256163E-1,-9.353021979E-1,-1.821602285E-1
3.091237729E0,-1.326254308E-1,-6.482134461E-1,-1.608549356E-1
3.092773267E0,5.858954508E-3,-4.399542212E-1,-1.507349163E-1
3.095584041E0,1.267664731E-1,-3.659183383E-1,-2.119876295E-1
3.097168690E0,2.284992188E-1,-4.303668439E-1,-3.376888335E-1
3.099660849E0,2.561961114E-1,-6.029396653E-1,-4.516721368E-1
3.100969806E0,2.109223604E-1,-7.547398806E-1,-5.081311464E-1
3.103730657E0,1.278317273E-1,-8.372978568E-1,-4.676510990E-1
3.105081614E0,4.527373984E-2,-8.628641963E-1,-3.302319944E-1
3.107835311E0,-3.728425596E-3,-8.804410696E-1,-1.326254308E-1
3.109092844E0,1.118527725E-2,-9.299758673E-1,4.154531285E-2
3.111940041E0,9.534116834E-2,-9.779127836E-1,1.059938148E-1
3.113197575E0,2.103897333E-1,-9.752495885E-1,5.113269389E-2
3.116043734E0,2.918824553E-1,-8.964200616E-1,-7.297061384E-2
3.117966344E0,3.110572100E-1,-6.556702852E-1,-2.620550692E-1
3.120090118E0,3.211772442E-1,-6.008091569E-1,-3.057309091E-1
3.121358344E0,3.882888854E-1,-5.789712071E-1,-3.723099232E-1
3.124159503E0,5.342301130E-1,-6.098638773E-1,-4.197141826E-1
3.125516190E0,7.084008455E-1,-7.110640407E-1,-4.085289240E-1
3.128246503E0,8.362326026E-1,-6.881608367E-1,-2.977414131E-1
3.129508460E0,8.234494328E-1,-6.199839115E-1,-2.482066154E-1
3.132137114E0,6.599313021E-1,-4.804342687E-1,-9.267801046E-2
3.133692229E0,5.022721887E-1,-5.315669775E-1,-2.769687586E-2
3.136420272E0,3.046656251E-1,-7.318366766E-1,5.326322280E-4
3.138091998E0,4.740426689E-2,-9.246495366E-1,-2.982740477E-2
3.140007614E0,-2.290318608E-1,-1.048220277E0,-1.091896072E-1
3.141844037E0,-4.687163532E-1,-1.066862345E0,-2.258360684E-1
3.144229306E0,-6.008091569E-1,-1.033839107E0,-3.403519988E-1
3.145810844E0,-5.976133347E-1,-8.708537221E-1,-4.617921412E-1
3.148264114E0,-4.511395097E-1,-6.918892860E-1,-5.150553584E-1
3.150100383E0,-2.476739883E-1,-5.320996046E-1,-4.761732221E-1
3.152300844E0,-3.888215125E-2,-3.637878001E-1,-3.808320463E-1
3.154110344E0,1.464738697E-1,-3.233077526E-1,-2.641855776E-1
3.156894503E0,2.822950780E-1,-3.765709996E-1,-2.008023560E-1
3.158220998E0,3.728425503E-1,-5.486112237E-1,-2.045307755E-1
3.160531152E0,4.053331316E-1,-7.568703890E-1,-2.700445354E-1
3.162306075E0,3.866910040E-1,-8.825715780E-1,-3.499393761E-1
3.164689921E0,3.195793331E-1,-9.395632744E-1,-3.675162494E-1
3.166545767E0,1.944107562E-1,-8.372978568E-1,-3.142530024E-1
3.168885229E0,5.486112088E-2,-6.908239722E-1,-2.050634027E-1
3.170873037E0,-3.994741663E-2,-6.258428693E-1,-9.747169912E-2
3.173116729E0,-4.846953228E-2,-6.956176758E-1,-4.633900523E-2
3.175347080E0,-2.183792181E-2,-7.685883045E-1,-9.161274135E-2
3.177416195E0,-3.089267015E-2,-7.760451436E-1,-1.837581247E-1
3.179045652E0,-8.149272949E-2,-7.302387953E-1,-2.966761589E-1
3.181497464E0,-2.343581803E-2,-7.499461770E-1,-3.424825370E-1
3.182723075E0,1.384843737E-1,-7.504788041E-1,-3.952131271E-1
3.185567080E0,3.632551730E-1,-7.382282615E-1,-4.069310129E-1
3.186896921E0,5.661880374E-1,-7.435545921E-1,-3.637878001E-1
3.189672118E0,7.110640407E-1,-5.320996046E-1,-3.520699143E-1
3.191205998E0,7.792409658E-1,-3.936152160E-1,-3.376888335E-1
3.193776464E0,7.755125165E-1,-2.519350350E-1,-3.616572917E-1
3.195097575E0,7.041398287E-1,-2.695119083E-1,-3.781688809E-1
3.197880810E0,5.704491138E-1,-4.538026452E-1,-3.595267534E-1
3.199708152E0,3.920173049E-1,-6.625944972E-1,-3.270362020E-1
3.201924695E0,2.034655064E-1,-9.092032313E-1,-2.588592768E-1
3.203160767E0,3.302319720E-2,-1.056742311E0,-2.066612989E-1
3.205994695E0,-6.977482140E-2,-1.065797091E0,-1.858886480E-1
3.207228498E0,-6.604639441E-2,-1.071123362E0,-1.858886480E-1
3.210099156E0,2.769687586E-2,-9.299758673E-1,-2.316950262E-1
3.211529113E0,1.518001854E-1,-7.185208797E-1,-2.892192900E-1
3.214125921E0,2.450108230E-1,-5.049353242E-1,-3.051982522E-1
3.215528037E0,2.785666585E-1,-3.707120419E-1,-3.014698327E-1
3.218307464E0,2.753708661E-1,-3.563309610E-1,-3.222424984E-1
3.220225037E0,2.439455539E-1,-5.656554103E-1,-4.474110603E-1
3.221840075E0,2.263686955E-1,-6.625944972E-1,-4.985437691E-1
3.223716460E0,1.225054115E-1,-7.318366766E-1,-5.938849449E-1
3.226221537E0,-4.207794741E-2,-7.025418878E-1,-6.119944453E-1
3.227943306E0,-2.300971150E-1,-6.364955306E-1,-5.331648588E-1
3.230208844E0,-3.898867965E-1,-5.539374948E-1,-4.037352204E-1
3.231931190E0,-5.028048158E-1,-5.789712071E-1,-2.535329461E-1
3.234188613E0,-5.811017752E-1,-7.861651778E-1,-1.022653878E-1
3.235981806E0,-5.534048676E-1,-9.645969868E-1,-1.001348570E-1
3.238792233E0,-4.671184719E-1,-1.023186564E0,-1.970739216E-1
3.240105960E0,-3.296993375E-1,-9.635316730E-1,-3.286340833E-1
3.242423267E0,-1.161138266E-1,-8.692557812E-1,-4.149205089E-1
3.244259844E0,2.018676102E-1,-7.627293468E-1,-4.591289759E-1
3.246450806E0,5.949501991E-1,-6.327670813E-1,-4.703142643E-1
3.248216075E0,9.544769526E-1,-5.033374429E-1,-4.362258017E-1
3.250639421E0,1.215466738E0,-3.882888854E-1,-3.904194236E-1
3.252351883E0,1.357146859E0,-2.924150825E-1,-3.776362538E-1
3.254696613E0,1.380582690E0,-2.812298238E-1,-4.095941782E-1
3.256359921E0,1.302285790E0,-3.494067490E-1,-4.713795185E-1
3.259210695E0,1.130778193E0,-5.113269091E-1,-5.001416802E-1
3.260751344E0,8.687231541E-1,-7.036072016E-1,-4.644553065E-1
3.263279041E0,5.523396134E-1,-8.436894417E-1,-3.813646734E-1
3.265026806E0,2.407497615E-1,-9.480853677E-1,-2.695119083E-1
3.267348887E0,-3.355583176E-2,-9.720538259E-1,-1.960086524E-1
3.268644883E0,-2.439455539E-1,-9.214537740E-1,-2.002697140E-1
3.271453387E0,-3.579288721E-1,-9.273127317E-1,-2.561961114E-1
3.272689421E0,-3.888215125E-1,-8.687231541E-1,-3.707120419E-1
3.275529118E0,-3.856257200E-1,-7.334345579E-1,-4.910869002E-1
3.276717806E0,-4.010720551E-1,-5.645901561E-1,-5.571333170E-1
3.279598810E0,-4.239752591E-1,-4.436826408E-1,-5.672533512E-1
3.281297075E0,-3.600593805E-1,-4.905542731E-1,-5.448827744E-1
3.283642887E0,-2.982740402E-1,-5.406216979E-1,-5.523396134E-1
3.284879421E0,-1.368864775E-1,-6.796387434E-1,-5.725796223E-1
3.287713041E0,4.314320907E-2,-8.218515515E-1,-5.704491138E-1
3.288945460E0,1.944107562E-1,-8.271778226E-1,-5.400890708E-1
3.291817656E0,3.025351167E-1,-7.360977530E-1,-4.495415986E-1
3.293057652E0,3.547330499E-1,-6.402239203E-1,-3.190467060E-1
3.295794229E0,4.010720551E-1,-6.253102422E-1,-1.794970632E-1
3.297183306E0,4.516721368E-1,-7.520766854E-1,-1.763012707E-1
3.300027579E0,4.878911078E-1,-8.996158242E-1,-2.455434501E-1
3.301904767E0,4.767058492E-1,-9.267801046E-1,-3.526025414E-1
3.303733690E0,4.229099751E-1,-8.255799413E-1,-4.490089715E-1
3.305338421E0,3.909520507E-1,-6.854977012E-1,-5.091964006E-1
3.307814152E0,4.612595141E-1,-6.396912932E-1,-5.187838078E-1
3.309429883E0,5.880259871E-1,-6.599313021E-1,-4.974785149E-1
3.311857344E0,6.838997602E-1,-6.338323355E-1,-4.522047639E-1
3.313524960E0,6.668555737E-1,-6.103965044E-1,-3.818973005E-1
3.315898536E0,5.603290796E-1,-5.134574771E-1,-3.605920076E-1
3.317736075E0,4.319647253E-1,-5.033374429E-1,-4.032025933E-1
3.320509810E0,3.265035450E-1,-5.768406987E-1,-5.012069345E-1
3.321783998E0,2.258360684E-1,-7.254450917E-1,-5.821670294E-1
3.324104729E0,1.171790883E-1,-8.958874345E-1,-5.917543769E-1
3.325856806E0,1.597896684E-3,-9.459548593E-1,-5.576659441E-1
3.328375229E0,-9.640643001E-2,-9.198558331E-1,-4.804342687E-1
3.329990844E0,-1.773665249E-1,-8.639294505E-1,-4.122573435E-1
3.332468806E0,-1.992044598E-1,-7.707188129E-1,-4.165183902E-1
3.334184729E0,-1.443433315E-1,-8.410263062E-1,-4.522047639E-1
3.336594690E0,-6.072007492E-2,-8.064051867E-1,-5.688512325E-1
3.338217190E0,1.331580617E-2,-7.664577961E-1,-6.514092088E-1
3.341055387E0,4.474110901E-2,-7.664577961E-1,-6.540724039E-1
3.342684960E0,1.161138266E-1,-6.913566589E-1,-6.327670813E-1
3.345135425E0,2.407497615E-1,-7.685883045E-1,-6.125270724E-1
3.346367229E0,3.973436356E-1,-8.388957381E-1,-6.157228351E-1
3.349204540E0,5.257080197E-1,-8.703210354E-1,-6.178534031E-1
3.350477960E0,5.592638254E-1,-7.685883045E-1,-6.157228351E-1
3.353308233E0,4.969458580E-1,-6.109291911E-1,-5.816344023E-1
3.354565306E0,3.675162494E-1,-5.491438508E-1,-5.219795704E-1
3.357411348E0,2.183792144E-1,-6.151902080E-1,-4.724447727E-1
3.358660306E0,9.321063757E-2,-8.170578480E-1,-4.601942301E-1
3.361514502E0,2.450108156E-2,-1.102016091E0,-4.671184719E-1
3.363331806E0,-2.716424316E-2,-1.265001535E0,-5.017395616E-1
3.365561771E0,-5.645901710E-2,-1.172323585E0,-5.528722405E-1
3.366802575E0,-2.822950855E-2,-1.058340192E0,-5.587311983E-1
3.369630656E0,1.235706806E-1,-8.713863492E-1,-5.645901561E-1
3.370926229E0,4.069310129E-1,-8.074704409E-1,-5.613943934E-1
3.373735463E0,7.318366766E-1,-7.520766854E-1,-5.555354357E-1
3.375031075E0,9.544769526E-1,-7.142598033E-1,-5.198490620E-1
3.377789460E0,1.042361259E0,-6.657902598E-1,-4.751079381E-1
3.379077075E0,1.043959141E0,-6.487460732E-1,-4.846953154E-1
3.381942963E0,1.042361259E0,-7.115966678E-1,-5.651227832E-1
3.383587575E0,1.030643344E0,-9.379653335E-1,-6.902913451E-1
3.385430767E0,1.008272767E0,-1.029578090E0,-6.897587180E-1
3.387365498E0,8.942894936E-1,-1.145691872E0,-6.199839115E-1
3.389746536E0,7.334345579E-1,-1.051948667E0,-5.406216979E-1
3.391436806E0,6.125270724E-1,-9.235842824E-1,-4.985437691E-1
3.393854767E0,5.571333170E-1,-9.225190282E-1,-4.953479767E-1
3.395467921E0,4.948153496E-1,-8.942894936E-1,-5.683186054E-1
3.398021806E0,3.105245829E-1,-8.873652816E-1,-7.078682184E-1
3.399619036E0,1.422128081E-1,-8.197209835E-1,-8.021441102E-1
3.402417271E0,-2.396845073E-2,-7.605988383E-1,-8.591358066E-1
3.403691383E0,-1.587243974E-1,-8.261125684E-1,-8.309062719E-1
3.406085344E0,-2.428802997E-1,-8.655273914E-1,-7.797735929E-1
3.407918613E0,-2.673813701E-1,-9.821738005E-1,-6.849650741E-1
3.410320729E0,-2.370213419E-1,-1.110538244E0,-5.821670294E-1
3.411937959E0,-1.741707325E-1,-1.194161415E0,-5.028048158E-1
3.414765579E0,-1.299622655E-1,-1.200020432E0,-4.511395097E-1
3.416099536E0,-1.326254308E-1,-1.085504532E0,-4.431500137E-1
3.418583267E0,-1.837581247E-1,-9.938917160E-1,-4.442152679E-1
3.420125421E0,-1.960086524E-1,-1.040763378E0,-4.655205607E-1
3.422974809E0,-8.948221803E-2,-1.156877160E0,-5.438175201E-1
3.425175613E0,2.535329461E-1,-1.301220536E0,-7.057377100E-1
3.427039117E0,3.840278387E-1,-1.268729925E0,-7.483482957E-1
3.428224383E0,6.247776151E-1,-1.137169838E0,-7.685883045E-1
3.431108463E0,8.665926456E-1,-9.358348250E-1,-7.275756001E-1
3.432385806E0,1.131310821E0,-7.424893379E-1,-6.711165905E-1
3.435213732E0,1.361940622E0,-6.663229465E-1,-6.056028605E-1
3.436497267E0,1.487641811E0,-7.494135499E-1,-5.342301130E-1
3.439317771E0,1.491370201E0,-9.187905788E-1,-5.001416802E-1
3.440691344E0,1.383778572E0,-1.071655989E0,-5.448827744E-1
3.443422502E0,1.194161415E0,-1.166464567E0,-6.514092088E-1
3.445451113E0,8.346347213E-1,-1.204814076E0,-8.085356951E-1
3.447463925E0,7.163903713E-1,-1.205879331E0,-8.303736448E-1
3.448722459E0,5.081311464E-1,-1.178182483E0,-8.309062719E-1
3.451534579E0,1.667138934E-1,-8.655273914E-1,-8.202536106E-1
3.452858459E0,-8.522115648E-2,-4.154531360E-1,-8.431568146E-1
3.455638694E0,-3.291667104E-1,-4.948153496E-1,-6.892260909E-1
3.457253036E0,-5.347627401E-1,-3.739078343E-1,-6.578007936E-1
3.459679690E0,-6.929545403E-1,-3.046656251E-1,-6.141249537E-1
3.461100459E0,-7.984157205E-1,-6.625944972E-1,-4.319647253E-1
3.463849425E0,-8.255799413E-1,-7.792409658E-1,-2.844256163E-1
3.465562767E0,-6.998787522E-1,-1.195226669E0,-4.687163606E-2
3.467353421E0,-4.905542731E-1,-1.217064619E0,6.924218684E-2
3.469234113E0,-2.407497615E-1,-1.047154903E0,1.374191195E-1
3.471575383E0,7.456851192E-3,-9.635316730E-1,2.135855258E-1
3.473202229E0,2.492718846E-1,-7.675230503E-1,1.715075821E-1
3.475714806E0,5.065332651E-1,-5.576659441E-1,-1.118527725E-2
3.477290152E0,7.275756001E-1,-4.628573954E-1,-2.561961114E-1
3.479646498E0,8.016114831E-1,-3.813646734E-1,-4.814995229E-1
3.481387421E0,7.137271762E-1,-3.526025414E-1,-6.343649626E-1
3.484270886E0,5.986786485E-1,-4.724447727E-1,-6.945524216E-1
3.485583613E0,5.289037824E-1,-5.826996565E-1,-7.350324988E-1
3.487772344E0,4.889563918E-1,-6.807039976E-1,-7.131945491E-1
3.489472690E0,4.133225977E-1,-7.542072535E-1,-6.008091569E-1
3.491941075E0,3.281014562E-1,-6.897587180E-1,-4.703142643E-1
3.493564036E0,2.524676621E-1,-5.800365210E-1,-3.536677957E-1
3.495943306E0,1.603222936E-1,-4.335626364E-1,-2.790992856E-1
3.497675575E0,2.609897964E-2,-3.984089196E-1,-2.199771106E-1
3.500104575E0,-9.321063757E-2,-5.597964525E-1,-1.784317940E-1
3.501849575E0,-1.475391239E-1,-7.920241356E-1,-2.077265680E-1
3.504690309E0,-1.549959779E-1,-9.560748339E-1,-3.834952116E-1
3.506203806E0,-1.496696621E-1,-9.209211469E-1,-4.697816372E-1
3.508757232E0,-1.246359423E-1,-7.611314654E-1,-5.006743073E-1
3.509908959E0,-5.219795927E-2,-5.086637735E-1,-5.044026971E-1
3.512819613E0,6.498113275E-2,-3.733751774E-1,-4.468784332E-1
3.514012844E0,2.013349831E-1,-3.771036267E-1,-3.605920076E-1
3.516931386E0,3.307646215E-1,-4.788363874E-1,-2.950782478E-1
3.518109536E0,4.085289240E-1,-5.976133347E-1,-2.918824553E-1
3.521025267E0,4.234426320E-1,-6.599313021E-1,-3.483414650E-1
3.522260959E0,4.250405133E-1,-7.307714224E-1,-4.165183902E-1
3.525139924E0,4.713795185E-1,-7.568703890E-1,-4.825648069E-1
3.526873882E0,5.523396134E-1,-6.668555737E-1,-5.225121975E-1
3.529165921E0,6.061354876E-1,-5.022721887E-1,-4.692489803E-1
3.530329536E0,6.013417840E-1,-3.723099232E-1,-3.281014562E-1
3.533252847E0,5.747101903E-1,-2.652508616E-1,-2.109223604E-1
3.534445344E0,5.416869521E-1,-3.110572100E-1,-1.773665249E-1
3.537357309E0,4.809668958E-1,-4.404868484E-1,-2.375539690E-1
3.538573306E0,3.632551730E-1,-6.428871155E-1,-3.259709179E-1
3.541266459E0,1.805623323E-1,-7.547398806E-1,-4.037352204E-1
3.542845652E0,-3.568635881E-2,-7.238472104E-1,-4.319647253E-1
3.545567309E0,-2.540655732E-1,-6.711165905E-1,-3.776362538E-1
3.547245690E0,-4.532700181E-1,-6.215817928E-1,-2.572613657E-1
3.549012844E0,-4.671184719E-1,-6.418218613E-1,-2.327602804E-1
3.550832729E0,-4.378236830E-1,-6.737797856E-1,-2.423476577E-1
3.553297113E0,-3.797667921E-1,-6.498113275E-1,-3.110572100E-1
3.554946267E0,-3.446130455E-1,-5.677859783E-1,-3.909520507E-1
3.557343959E0,-3.137203753E-1,-4.735100567E-1,-4.607268870E-1
3.559032729E0,-1.864212751E-1,-4.090615511E-1,-5.368933082E-1
3.561404998E0,1.741707325E-1,-5.060006380E-1,-5.768406987E-1
3.563156767E0,3.994741738E-1,-5.635249019E-1,-5.182511806E-1
3.566050232E0,5.619270205E-1,-5.837649107E-1,-4.111920893E-1
3.567304152E0,6.812366247E-1,-5.155879855E-1,-3.398193717E-1
3.569753806E0,7.941546440E-1,-4.527373910E-1,-3.217098713E-1
3.571376806E0,8.623315692E-1,-4.559331834E-1,-3.281014562E-1
3.573819421E0,8.580704927E-1,-5.065332651E-1,-3.249056637E-1
3.575483344E0,7.898935676E-1,-6.018744111E-1,-3.057309091E-1
3.577835998E0,6.897587180E-1,-6.897587180E-1,-2.945456207E-1
3.579581229E0,5.699164867E-1,-6.748450398E-1,-3.126551211E-1
3.582033690E0,4.319647253E-1,-6.934871674E-1,-3.259709179E-1
3.583688767E0,3.110572100E-1,-6.791061163E-1,-3.669835925E-1
3.586594501E0,2.492718846E-1,-6.407565475E-1,-4.585963488E-1
3.588127075E0,2.263686955E-1,-5.352953672E-1,-5.651227832E-1
3.590671116E0,1.853560209E-1,-3.893541694E-1,-6.130596995E-1
3.591816459E0,7.563377917E-2,-2.556634545E-1,-5.736449361E-1
3.594722921E0,-5.752427876E-2,-2.018676102E-1,-4.932174385E-1
3.595929882E0,-1.624528319E-1,-2.988066673E-1,-4.340952635E-1
3.598842924E0,-2.039981484E-1,-5.454154015E-1,-4.149205089E-1
3.600030421E0,-2.087918371E-1,-8.543421030E-1,-4.298342168E-1
3.602941306E0,-2.130528986E-1,-1.013599157E0,-4.655205607E-1
3.604153882E0,-2.338255495E-1,-9.709885716E-1,-4.724447727E-1
3.607051386E0,-2.876214087E-1,-6.759102941E-1,-3.781688809E-1
3.608817229E0,-2.833603323E-1,-5.523396134E-1,-2.865561247E-1
3.611098155E0,-1.960086524E-1,-5.246427655E-1,-2.604571581E-1
3.612241998E0,-5.166532472E-2,-6.072007418E-1,-3.126551211E-1
3.615168001E0,7.829693705E-2,-6.652576327E-1,-4.282363057E-1
3.616352690E0,1.523328125E-1,-6.082659960E-1,-5.438175201E-1
3.619272809E0,2.098570913E-1,-5.507417321E-1,-5.954828262E-1
3.620557805E0,3.158509135E-1,-4.980111420E-1,-6.093312502E-1
3.623146344E0,5.123922229E-1,-5.384911895E-1,-5.800365210E-1
3.624574959E0,7.691209316E-1,-6.269081235E-1,-5.352953672E-1
3.627481886E0,9.970875382E-1,-6.785734296E-1,-4.846953154E-1
3.629094267E0,1.114799261E0,-5.853627920E-1,-4.479437172E-1
3.630923344E0,1.077515006E0,-3.850930929E-1,-4.277036786E-1
3.632720921E0,9.283779860E-1,-2.279665917E-1,-4.229099751E-1
3.635255690E0,7.510114312E-1,-2.908172011E-1,-4.229099751E-1
3.636840805E0,5.901564956E-1,-5.320996046E-1,-4.340952635E-1
3.639280767E0,4.356931746E-1,-7.840346098E-1,-4.495415986E-1
3.640988036E0,2.492718846E-1,-1.016262293E0,-4.143878818E-1
3.643320652E0,2.024002373E-2,-1.035437107E0,-3.659183383E-1
3.645098690E0,-1.837581247E-1,-9.129316211E-1,-3.472762108E-1
3.647955693E0,-2.940129936E-1,-7.126619220E-1,-4.106594622E-1
3.649350613E0,-2.822950780E-1,-4.884237647E-1,-5.225121975E-1
3.651589767E0,-2.556634545E-1,-3.936152160E-1,-5.821670294E-1
3.653454921E0,-2.817624509E-1,-2.956108749E-1,-5.709817410E-1
3.655704229E0,-3.451456726E-1,-3.243730366E-1,-4.857605994E-1
3.657400882E0,-3.584614992E-1,-4.538026452E-1,-4.372910559E-1
3.659762459E0,-2.013349831E-1,-7.600662112E-1,-4.980111420E-1
3.661492536E0,-6.924218684E-2,-9.022790194E-1,-5.667206645E-1
3.664078036E0,1.118527725E-2,-8.543421030E-1,-5.970807076E-1
3.666048613E0,4.154531285E-2,-6.945524216E-1,-5.448827744E-1
3.668510693E0,5.805691332E-2,-5.241101384E-1,-4.378236830E-1
3.670126498E0,1.065264493E-1,-3.797667921E-1,-3.659183383E-1
3.672588962E0,1.699096859E-1,-3.302319944E-1,-3.483414650E-1
3.673834267E0,1.832254827E-1,-3.312972486E-1,-3.653857112E-1
3.676657385E0,1.464738697E-1,-4.862932265E-1,-3.733751774E-1
3.678015921E0,1.470064968E-1,-7.233145833E-1,-3.936152160E-1
3.680760578E0,2.631203234E-1,-8.990831971E-1,-4.633900523E-1
3.681947998E0,4.644553065E-1,-1.066329718E0,-4.814995229E-1
3.684862882E0,6.743124127E-1,-1.072721362E0,-4.383563101E-1
3.686065459E0,8.170578480E-1,-7.579356432E-1,-3.973436356E-1
3.688968501E0,8.570052385E-1,-2.918824553E-1,-3.659183383E-1
3.690670498E0,7.174556255E-1,1.651159972E-1,-3.584614992E-1
3.692994652E0,6.476807594E-1,1.667138934E-1,-3.818973005E-1
3.694155882E0,5.049353242E-1,-3.249056637E-2,-4.687163532E-1
3.697080347E0,3.376888335E-1,-4.676510990E-1,-5.448827744E-1
3.698260921E0,1.331580579E-1,-9.033442736E-1,-5.619270205E-1
3.701185462E0,-6.338323653E-2,-1.203748822E0,-5.166532397E-1
3.702378882E0,-1.651159972E-1,-1.174986720E0,-4.932174385E-1
3.705111805E0,-1.102548689E-1,-8.420915604E-1,-5.107942820E-1
3.706564267E0,4.580637068E-2,-5.289037824E-1,-4.633900523E-1
3.709394539E0,1.693770438E-1,-1.699096859E-1,-3.771036267E-1
3.710937382E0,2.348908186E-1,6.498113275E-2,-2.471413612E-1
3.712809075E0,2.391518652E-1,-4.793690145E-2,-2.599245310E-1
3.714605728E0,2.018676102E-1,-3.813646734E-1,-3.344930410E-1
3.717107190E0,9.853696078E-2,-7.637946010E-1,-4.340952635E-1
3.718724382E0,-3.621899337E-2,-1.023719192E0,-5.241101384E-1
3.721152113E0,-1.310275346E-1,-1.081243396E0,-5.773733258E-1
3.722850767E0,-1.523328125E-1,-8.910937309E-1,-5.821670294E-1
3.725221959E0,-1.177117229E-1,-5.198490620E-1,-5.342301130E-1
3.726956190E0,-7.616640627E-2,-1.086569726E-1,-4.234426320E-1
3.729859424E0,-1.166464612E-1,1.278317273E-1,-2.647182047E-1
3.731178344E0,-2.215750068E-1,1.272991002E-1,-1.613875628E-1
3.733376190E0,-2.641855776E-1,-2.530003190E-1,-1.800296903E-1
3.735123267E0,-1.432780623E-1,-8.926916122E-1,-3.488741219E-1
3.737470267E0,1.054611802E-1,-1.429584861E0,-5.752428174E-1
3.739151998E0,3.057309091E-1,-1.473260760E0,-7.355651259E-1
3.741554767E0,3.472762108E-1,-9.614011645E-1,-6.950850487E-1
3.743288728E0,3.110572100E-1,-2.838929892E-1,-4.607268870E-1
3.745762959E0,3.904194236E-1,1.922802329E-1,-2.114549875E-1
3.747369344E0,6.024070382E-1,1.826928556E-1,-6.870955974E-2
3.750281770E0,8.080030680E-1,-1.864212751E-1,-7.084008306E-2
3.751810459E0,7.691209316E-1,-8.964200616E-1,-2.178465873E-1
3.754349577E0,6.721818447E-1,-9.875001311E-1,-3.041329980E-1
3.755490959E0,4.511395097E-1,-1.067394972E0,-4.548679292E-1
3.758394498E0,3.334277868E-1,-1.013599157E0,-5.560680628E-1
3.759582075E0,4.239752591E-1,-9.017463326E-1,-5.917543769E-1
3.762524193E0,6.620618701E-1,-7.515440583E-1,-5.320996046E-1
3.763694036E0,8.767126203E-1,-4.868258536E-1,-3.877562582E-1
3.766611075E0,9.065400362E-1,-1.416801661E-1,-1.992044598E-1
3.767834690E0,5.906891227E-1,8.575379103E-2,-3.621899337E-2
3.770734847E0,2.972087860E-1,-1.177117229E-1,-1.576591432E-1
3.772427767E0,5.858954415E-2,-5.225121975E-1,-4.367584288E-1
3.774767959E0,-1.225054115E-1,-9.997506738E-1,-6.870955825E-1
3.775935421E0,-3.217098713E-1,-1.218662500E0,-7.563377619E-1
3.778849808E0,-5.432848930E-1,-1.082308650E0,-6.008091569E-1
3.780023036E0,-6.684534550E-1,-7.978830934E-1,-3.227751255E-1
3.782937728E0,-5.597964525E-1,-5.949501991E-1,-1.182443574E-1
3.784141267E0,-2.237055302E-1,-4.830974340E-1,-1.267664731E-1
3.786862228E0,1.645833552E-1,-4.399542212E-1,-2.849582434E-1
3.788320075E0,3.488741219E-1,-3.914846778E-1,-4.133225977E-1
3.791165077E0,2.183792144E-1,-2.226402760E-1,-4.543353021E-1
3.792838075E0,-6.551376730E-2,-1.262338310E-1,-4.079962969E-1
3.794604998E0,-1.992044598E-1,-4.181163013E-1,-3.643204570E-1
3.796410344E0,-5.379585549E-2,-9.262474179E-1,-4.016047120E-1
3.798857305E0,2.476739883E-1,-1.363005877E0,-4.607268870E-1
3.800509767E0,4.756405652E-1,-1.404018521E0,-4.335626364E-1
3.802931690E0,5.566006899E-1,-1.071123362E0,-2.838929892E-1
3.804619882E0,6.476807594E-1,-5.406216979E-1,-1.581917703E-1
3.806976882E0,9.017463326E-1,-1.784317940E-1,-1.565938741E-1
3.808656882E0,1.272458434E0,-1.789644361E-1,-2.487392575E-1
3.811578923E0,1.548894525E0,-3.840278387E-1,-3.414172530E-1
3.812812382E0,1.537176609E0,-5.699164867E-1,-3.552657068E-1
3.815133998E0,1.260740519E0,-5.763080716E-1,-3.323625028E-1
3.816919575E0,9.076052904E-1,-5.374259353E-1,-3.334277868E-1
3.819320652E0,6.588660479E-1,-5.118595958E-1,-4.058657587E-1
3.820988382E0,5.320996046E-1,-6.428871155E-1,-4.277036786E-1
3.823357651E0,2.689792812E-1,-7.632619739E-1,-2.295644879E-1
3.825114036E0,-5.539375171E-2,-7.536746264E-1,1.704423130E-2
3.827515998E0,-3.435477912E-1,-8.138620257E-1,1.800296903E-1
3.829220305E0,-4.005394280E-1,-9.875001311E-1,9.747169912E-2
3.832128269E0,-2.684466541E-1,-1.100418210E0,-2.029328793E-1
3.833744075E0,-1.922802329E-1,-9.912285805E-1,-5.150553584E-1
3.836207885E0,-2.998719513E-1,-5.965480804E-1,-6.317018270E-1
3.837355228E0,-4.703142643E-1,-3.089267015E-1,-5.241101384E-1
3.840263305E0,-4.362258017E-1,-1.315601617E-1,-4.122573435E-1
3.841456728E0,-1.219727769E-1,-2.663161159E-1,-3.637878001E-1
3.844383115E0,2.918824553E-1,-6.231797338E-1,-3.062635362E-1
3.845648690E0,5.603290796E-1,-8.745821118E-1,-2.061286718E-1
3.848488269E0,6.141249537E-1,-8.948221207E-1,-7.616640627E-2
3.849720767E0,5.885586143E-1,-7.792409658E-1,-1.864212751E-2
3.852593692E0,7.009440064E-1,-7.414240837E-1,-7.723167539E-2
3.854382190E0,1.138235092E0,-9.885654449E-1,-2.695119083E-1
3.856649882E0,1.260740519E0,-9.944243431E-1,-3.174487948E-1
3.857797805E0,1.319329977E0,-8.793758154E-1,-2.929477394E-1
3.860724423E0,1.107342362E0,-5.219795704E-1,-1.922802329E-1
3.861896767E0,8.250473142E-1,-1.001348570E-1,-1.608549356E-1
3.864799728E0,6.732471585E-1,-7.989482954E-3,-2.178465873E-1
3.866039882E0,5.795038939E-1,-2.551308274E-1,-2.641855776E-1
3.868698421E0,3.664509654E-1,-6.609966159E-1,-1.773665249E-1
3.870136036E0,-1.171790902E-2,-1.045024395E0,1.917476021E-2
3.873041192E0,-3.568635881E-1,-1.339037418E0,1.853560209E-1
3.874631305E0,-4.138552547E-1,-1.552622914E0,9.214537591E-2
3.876471113E0,-2.231729031E-1,-1.421595454E0,-1.352885813E-1
3.878280421E0,-1.086569726E-1,-9.155948162E-1,-3.275688291E-1
3.880731767E0,-1.475391239E-1,-3.717772961E-1,-3.291667104E-1
3.882381998E0,-1.826928556E-1,5.858954415E-2,-2.769687474E-1
3.884812844E0,-2.503371425E-2,1.720402092E-1,-3.174487948E-1
3.886484998E0,2.609897852E-1,-1.315601617E-1,-3.680488765E-1
3.888867805E0,4.538026452E-1,-6.258428693E-1,-3.366235793E-1
3.890607151E0,4.506068528E-1,-9.523464441E-1,-2.327602804E-1
3.893517769E0,4.138552547E-1,-1.087635040E0,-1.512675583E-1
3.894785805E0,5.763080716E-1,-1.206411958E0,-1.283643693E-1
3.897341382E0,9.475527406E-1,-1.335841656E0,-1.352885813E-1
3.898841382E0,1.334776402E0,-1.238902569E0,-1.267664731E-1
3.901268690E0,1.510545015E0,-8.884305358E-1,-2.450108156E-2
3.902944113E0,1.389637470E0,-3.291667104E-1,6.285060197E-2
3.905335844E0,1.120125532E0,1.837581247E-1,1.438106969E-2
3.907073844E0,8.703210354E-1,3.275688291E-1,-1.986718178E-1
3.909451998E0,6.093312502E-1,1.278317347E-2,-4.005394280E-1
3.911178844E0,2.556634545E-1,-6.588660479E-1,-4.372910559E-1
3.914061961E0,-1.821602285E-1,-1.223456264E0,-3.536677957E-1
3.915660382E0,-5.368933082E-1,-1.708684206E0,-1.693770438E-1
3.918142961E0,-5.171858668E-1,-1.736913681E0,-1.299622655E-1
3.919286767E0,-3.462109566E-1,-1.524926066E0,-1.006674916E-1
3.922206498E0,-1.890844405E-1,-9.571400881E-1,-7.084008306E-2
3.923390805E0,-1.981391907E-1,-1.400822699E-1,1.917476021E-2
3.926317923E0,-1.272991002E-1,1.645833552E-1,-8.362326026E-2
3.927495882E0,9.321063757E-2,-4.527373984E-2,-2.636529505E-1
3.930423038E0,3.169161677E-1,-4.990763962E-1,-4.149205089E-1
3.931633459E0,3.877562582E-1,-8.884305358E-1,-4.314320982E-1
3.934528269E0,3.355582952E-1,-1.073253989E0,-3.323625028E-1
3.936295882E0,4.005394280E-1,-1.038632870E0,-2.588592768E-1
3.938561882E0,7.329019308E-1,-1.067927599E0,-2.066612989E-1
3.939704651E0,1.201618314E0,-1.117995024E0,-1.262338310E-1
3.942639846E0,1.540372372E0,-1.005609632E0,1.278317347E-2
3.943821190E0,1.568069220E0,-5.981460214E-1,1.464738697E-1
3.946727728E0,1.294828892E0,-3.834952042E-2,1.800296903E-1
3.947947344E0,9.209211469E-1,1.629854590E-1,1.033306494E-1
3.950622344E0,5.699164867E-1,-1.006674916E-1,-9.108011425E-2
3.952069767E0,2.609897852E-1,-6.737797856E-1,-2.838929892E-1
3.954954654E0,-5.699164793E-2,-1.356614232E0,-3.440804183E-1
3.956586036E0,-4.458131790E-1,-1.720934749E0,-2.354234457E-1
3.958401036E0,-4.910869002E-1,-1.660747290E0,-1.688444167E-1
3.960214728E0,-4.266384244E-1,-1.317732096E0,-4.048004746E-2
3.962684690E0,-3.030677438E-1,-8.170578480E-1,8.042746782E-2
3.964308805E0,-2.668487430E-1,-4.074636400E-1,1.651159972E-1
3.966742036E0,-2.418150306E-1,-1.704423130E-2,5.805691332E-2
3.968461305E0,-1.027980223E-1,-6.817692518E-2,-1.645833552E-1
3.970785651E0,7.669904083E-2,-3.957457542E-1,-3.760383427E-1
3.972556882E0,9.001484513E-2,-6.838997602E-1,-4.404868484E-1
3.975443500E0,-5.113269389E-2,-1.013066530E0,-2.269013226E-1
3.976730805E0,1.645833552E-1,-1.144093990E0,-1.512675583E-1
3.978924690E0,7.222493291E-1,-1.324656367E0,-1.315601617E-1
3.980621036E0,1.327852130E0,-1.388039589E0,-7.403588295E-2
3.983038074E0,1.728924155E0,-1.131310821E0,6.817692518E-2
3.984729459E0,1.806688547E0,-5.219795704E-1,2.050634027E-1
3.987122459E0,1.607484102E0,1.848233789E-1,2.332929224E-1
3.988836228E0,1.278317332E0,4.628573954E-1,1.379517466E-1
3.991256998E0,9.235842824E-1,1.150485575E-1,-2.929477207E-2
3.992958036E0,5.677859783E-1,-6.322344542E-1,-2.018676102E-1
3.995864269E0,1.794970632E-1,-1.392300606E0,-2.892192900E-1
3.997379228E0,-1.667138934E-1,-1.889246464E0,-2.434129268E-1
3.999934538E0,-3.328951299E-1,-1.925465465E0,-1.012001261E-1
4.001077036E0,-3.419498801E-1,-1.550492406E0,8.468852192E-2
4.003990882E0,-3.030677438E-1,-9.432916641E-1,2.679139972E-1
4.005177536E0,-2.790992856E-1,-4.069310129E-1,3.850930929E-1
4.008109538E0,-2.141181529E-1,-6.764429063E-2,2.956108749E-1
4.009281844E0,-5.273059011E-2,-6.498113275E-2,5.379585549E-2
4.012198074E0,3.462109342E-2,-4.048005044E-1,-1.491370201E-1
4.013404113E0,-5.539375171E-2,-7.680556774E-1,-2.322276533E-1
4.016319730E0,-1.688444167E-1,-1.103613973E0,-2.013349831E-1
4.018037728E0,2.141181529E-1,-1.441835403E0,-2.263686955E-1
4.020361961E0,5.123922229E-1,-1.512142897E0,-2.428802997E-1
4.021665382E0,1.163801432E0,-1.447694421E0,-2.093244642E-1
4.024432038E0,1.637844086E0,-1.022653818E0,-2.077265643E-2
4.025646113E0,1.771002173E0,-3.462109566E-1,2.583266199E-1
4.028515459E0,1.623995662E0,3.318298757E-1,4.223773479E-1
4.029705651E0,1.390702724E0,5.278385282E-1,3.664509654E-1
4.032407728E0,1.126517177E0,4.420847446E-2,1.464738697E-1
