"Time (s)","Acceleration x (m/s^2)","Acceleration y (m/s^2)","Acceleration z (m/s^2)"
7.619192000E-3,4.237737060E-1,8.822632790E0,6.351817131E0
1.003992300E-2,4.548983276E-2,9.311050415E0,5.822698593E0
1.172069200E-2,-3.639186621E-1,9.732429504E0,4.944026470E0
1.409692300E-2,-4.979939461E-1,9.914389610E0,3.277662039E0
1.584980800E-2,-1.125274822E-1,9.871294022E0,1.242590666E0
1.838538500E-2,5.219359994E-1,9.809044838E0,-1.532289088E-1
2.003092300E-2,9.026140571E-1,9.780313492E0,-5.027823448E-1
2.247550000E-2,5.793967843E-1,9.720458984E0,-2.873042040E-2
2.403500000E-2,-3.926490843E-1,9.507374763E0,7.062895298E-1
2.695799600E-2,-1.529894829E0,9.217676163E0,1.632845521E0
2.813300000E-2,-2.209848166E0,8.731653214E0,2.748543501E0
3.050907700E-2,-2.102109194E0,8.032546997E0,3.864241600E0
3.226046200E-2,-1.431732655E0,7.412448406E0,4.769249916E0
3.484773100E-2,-6.631938815E-1,7.192182064E0,5.197812080E0
3.643423100E-2,-1.915361360E-2,7.410054207E0,5.044582844E0
3.874407700E-2,6.296750307E-1,7.953537941E0,4.546588898E0
4.048853900E-2,1.364694953E0,8.508993149E0,4.036623955E0
4.339592000E-2,2.466027737E0,8.889671326E0,3.837905407E0
4.456430800E-2,2.889801502E0,9.026140213E0,4.125209332E0
4.750353500E-2,2.425326347E0,9.320627213E0,4.364629745E0
4.906819200E-2,7.996633649E-1,9.856928825E0,4.206612587E0
5.159691900E-2,-1.316810966E0,1.056800652E1,3.541024208E0
5.274034600E-2,-2.940079689E0,1.118810463E1,2.707842112E0
5.566476600E-2,-3.509899616E0,1.130542088E1,2.176329374E0
5.685811500E-2,-2.983175278E0,1.072362900E1,2.193088770E0
5.976715000E-2,-1.628057122E0,9.708487511E0,2.655169725E0
6.101811500E-2,-1.556231081E-1,8.717288017E0,3.335123062E0
6.386957300E-2,7.733271718E-1,7.934384346E0,3.943250179E0
6.503069200E-2,1.010353088E0,7.900865555E0,4.718971729E0
6.797207300E-2,4.860229492E-1,8.525752068E0,5.729324818E0
6.950450000E-2,-7.350199223E-1,9.119514465E0,6.562506676E0
7.206265000E-2,-2.003946781E0,9.114726067E0,6.780379295E0
7.321776900E-2,-2.487575531E0,8.461109161E0,6.279991150E0
7.612941900E-2,-1.728613615E0,7.668628216E0,5.315127850E0
7.731592300E-2,-1.723825186E-1,7.388506413E0,4.335899353E0
7.996026900E-2,1.333570361E0,7.850587368E0,3.562572241E0
8.142296200E-2,1.987187386E0,8.801085472E0,3.136404276E0
8.433522700E-2,1.482010841E0,9.583989143E0,3.035847664E0
8.549900000E-2,3.016694188E-1,1.008437729E1,3.229778051E0
8.843849600E-2,-9.169792533E-1,1.043632507E1,3.526659012E0
8.965326900E-2,-1.587355733E0,1.048899746E1,3.411737442E0
9.206203800E-2,-8.451532125E-1,9.976638794E0,2.276885748E0
9.375638500E-2,3.327940404E-1,9.447520256E0,1.570596337E0
9.613565400E-2,1.216254473E0,9.011775017E0,1.417367458E0
9.785853800E-2,1.326387763E0,8.848969460E0,1.958456993E0
1.002423850E-1,6.560112834E-1,8.786720276E0,2.846705914E0
1.019649620E-1,-5.147533417E-1,8.647856712E0,4.003105164E0
1.046692690E-1,-1.632845521E0,8.221688271E0,5.358223438E0
1.060630770E-1,-2.161964178E0,7.546523571E0,6.550535679E0
1.089754580E-1,-2.114080191E0,7.058106422E0,7.338228226E0
1.101907310E-1,-1.740584612E0,6.924031258E0,7.259219646E0
1.125558850E-1,-1.110909581E0,7.220912457E0,6.260837555E0
1.142994230E-1,-1.747767180E-1,7.896077156E0,4.831499100E0
1.166823460E-1,1.034295082E0,8.492233276E0,3.337517262E0
1.183965770E-1,2.224213362E0,8.858546257E0,2.264914751E0
1.208615770E-1,2.949656487E0,9.160215378E0,1.853112102E0
1.225238080E-1,2.738966703E0,9.536105156E0,1.833958507E0
1.253891150E-1,1.319205165E0,1.008677197E1,1.810016513E0
1.266018460E-1,-9.074024558E-1,1.085052204E1,1.541865945E0
1.295157270E-1,-2.997540474E0,1.163103199E1,1.077390790E0
1.310048850E-1,-4.436455727E0,1.201889229E1,7.062895298E-1
1.336102270E-1,-4.302380562E0,1.180102062E1,8.236053586E-1
1.347631150E-1,-3.122039080E0,1.093910789E1,1.460463047E0
1.376785350E-1,-1.259350061E0,9.749189377E0,2.494758129E0
1.388777310E-1,1.043871999E0,7.941566944E0,4.319139957E0
1.417814960E-1,1.848323703E0,7.268796444E0,5.590460777E0
1.430016150E-1,1.898601890E0,7.527369976E0,7.098807812E0
1.458840350E-1,8.858546019E-1,8.202534676E0,8.389283180E0
1.470451150E-1,-8.714894056E-1,8.592789650E0,8.930372238E0
1.499866880E-1,-2.341529369E0,8.415618896E0,8.655038834E0
1.515066920E-1,-2.621650934E0,7.793126583E0,7.833827972E0
1.540735770E-1,-1.546654344E0,7.240066051E0,6.773196697E0
1.552333080E-1,2.322375625E-1,7.180211067E0,5.707777023E0
1.581466110E-1,1.687912226E0,7.742848396E0,4.707000732E0
1.593308460E-1,2.066195965E0,8.616731644E0,3.854664803E0
1.619765000E-1,1.285686255E0,9.507374763E0,3.354276657E0
1.634383850E-1,-1.005564705E-1,1.032858658E1,3.165134668E0
1.663516880E-1,-1.369483352E0,1.090798283E1,2.880224705E0
1.675416150E-1,-1.821987510E0,1.102769279E1,2.166752577E0
1.704542270E-1,-1.065419793E0,1.058237171E1,9.959878922E-1
1.716668460E-1,4.405331016E-1,9.864110947E0,1.675941236E-2
1.740775770E-1,1.774103403E0,9.193734169E0,-3.758896589E-1
1.757618850E-1,2.173935175E0,8.961497307E0,-5.506663769E-2
1.781527690E-1,1.458068848E0,9.059659004E0,7.876923680E-1
1.798774610E-1,-1.436521020E-2,9.119514465E0,1.960851192E0
1.822584230E-1,-1.561019540E0,8.889671326E0,3.481169224E0
1.840126150E-1,-2.506729126E0,8.293514252E0,5.058948040E0
1.866437310E-1,-2.406172752E0,7.271190643E0,6.785167694E0
1.880720380E-1,-1.592144132E0,6.868964672E0,6.993463039E0
1.909957270E-1,-4.955997467E-1,6.998251438E0,6.586448669E0
1.921862690E-1,7.158663273E-1,7.563282967E0,5.920860767E0
1.945893850E-1,1.912967205E0,8.101978302E0,5.106832027E0
1.963148850E-1,2.789244890E0,8.394071579E0,4.410119534E0
1.987190770E-1,3.023876667E0,8.578424454E0,4.115632534E0
2.004040770E-1,2.387019157E0,8.949525833E0,4.122815132E0
2.028750000E-1,8.283938169E-1,9.603142738E0,4.031835556E0
2.045520770E-1,-1.276109457E0,1.034774017E1,3.359065056E0
2.074090770E-1,-3.193865061E0,1.101811600E1,2.231395960E0
2.086245000E-1,-4.340687752E0,1.149695683E1,1.340752959E0
2.115342270E-1,-4.347870350E0,1.156399441E1,1.144428372E0
2.130960380E-1,-3.239354849E0,1.105402946E1,1.496376038E0
2.156263800E-1,-1.580173135E0,1.002931118E1,2.049436569E0
2.167955380E-1,5.506663769E-2,8.808267593E0,2.612074137E0
2.196941880E-1,1.472434044E0,7.948749542E0,3.244143248E0
2.208695000E-1,2.319981337E0,8.003816605E0,4.242525578E0
2.237969570E-1,2.066195965E0,8.544905663E0,5.202600479E0
2.250797310E-1,6.584054828E-1,8.939949036E0,5.734113216E0
2.278993030E-1,-1.070208192E0,8.882488251E0,5.760449409E0
2.290601920E-1,-2.056619167E0,8.439560890E0,5.434837818E0
2.320021500E-1,-1.884236693E0,8.099584579E0,5.102043629E0
2.336323850E-1,-3.471592367E-1,8.058882713E0,4.625597477E0
2.360817690E-1,6.392518282E-1,8.341399193E0,4.443638325E0
2.372280380E-1,8.714894056E-1,8.774748802E0,4.632780075E0
2.401605340E-1,2.753331959E-1,9.291896820E0,4.984727859E0
2.413525380E-1,-7.422025204E-1,9.962273598E0,5.135562420E0
2.439975380E-1,-1.525106430E0,1.032619190E1,4.651933670E0
2.455064610E-1,-1.386242747E0,1.007480049E1,3.620033026E0
2.483535770E-1,-2.178723514E-1,9.406818390E0,2.695871115E0
2.495546150E-1,1.264138460E0,8.705317497E0,2.217030764E0
2.524675340E-1,1.922544003E0,8.379706383E0,2.185906172E0
2.540178850E-1,1.240196466E0,8.530540466E0,2.355894566E0
2.560966150E-1,-4.070142806E-1,8.978256226E0,2.657563925E0
2.577794230E-1,-2.233790159E0,9.284713745E0,3.263296843E0
2.601590000E-1,-3.399766445E0,8.956708908E0,4.067748547E0
2.618870000E-1,-3.318363667E0,8.085219383E0,4.740519524E0
2.643093460E-1,-2.097320795E0,7.319074631E0,5.125985622E0
2.659401150E-1,-4.118026793E-1,7.005434036E0,4.862623692E0
2.686972690E-1,9.648633003E-1,7.359776020E0,4.089296341E0
2.700564230E-1,1.805228114E0,8.106766701E0,3.169923067E0
2.729374570E-1,2.288856745E0,8.767566681E0,2.422932148E0
2.741773460E-1,2.501940727E0,9.133879662E0,2.260126352E0
2.765339230E-1,2.324769735E0,9.299078941E0,2.597708941E0
2.782550000E-1,1.501164436E0,9.536105156E0,3.014299870E0
2.806338840E-1,-1.436520964E-1,1.002931118E1,3.162740469E0
2.823350770E-1,-2.145204782E0,1.058955383E1,2.849100113E0
2.848275000E-1,-4.232948780E0,1.118092155E1,2.312798738E0
2.864766150E-1,-4.467580318E0,1.109473038E1,2.504334927E0
2.893701110E-1,-3.610456228E0,1.057758331E1,3.126827478E0
2.905495000E-1,-1.991975784E0,9.715670586E0,3.854664803E0
2.934724570E-1,-3.591302633E-1,8.655038834E0,4.570530891E0
2.949650000E-1,8.858546019E-1,7.661445618E0,5.248090267E0
2.975652260E-1,1.666364431E0,7.383718014E0,6.162675381E0
2.986956540E-1,1.647210717E0,7.826645374E0,7.115567684E0
3.016331110E-1,6.200982332E-1,8.406042099E0,7.568071365E0
3.028640380E-1,-7.374141216E-1,8.604761124E0,7.175422668E0
3.057362650E-1,-1.529894829E0,8.444349289E0,6.220136166E0
3.069513840E-1,-1.371877551E0,8.269572258E0,5.133168221E0
3.098392260E-1,-5.339069963E-1,8.274360657E0,4.115632534E0
3.110274230E-1,4.979939461E-1,8.602366447E0,3.287238836E0
3.139416110E-1,1.170764685E0,9.181763649E0,2.839523315E0
3.154960000E-1,1.036689281E0,9.643844604E0,2.736572504E0
3.180259610E-1,3.184288144E-1,9.993397713E0,2.801215887E0
3.191976920E-1,-4.932055473E-1,1.031422138E1,2.741360903E0
3.220999570E-1,-9.433154464E-1,1.048420906E1,2.379836559E0
3.232851920E-1,-7.134721279E-1,1.030464458E1,1.766920805E0
3.259293460E-1,1.460463107E-1,9.840168953E0,1.319205165E0
3.274153460E-1,9.576807022E-1,9.315838814E0,1.347935557E0
3.302743080E-1,9.528923035E-1,8.911218643E0,1.917755604E0
3.314835000E-1,1.268926859E-1,8.671798706E0,2.832340717E0
3.344075340E-1,-1.055842996E0,8.547300339E0,4.050989151E0
3.358597310E-1,-2.545036316E0,7.812280178E0,5.995080948E0
3.380164230E-1,-2.705447912E0,6.986280441E0,6.976703644E0
3.397245380E-1,-1.999158382E0,6.495469093E0,7.532158375E0
3.421048080E-1,-7.948749661E-1,6.631938934E0,7.431602001E0
3.438262310E-1,3.016694188E-1,7.285555840E0,6.636727333E0
3.462376540E-1,1.113303781E0,8.073247910E0,5.367800236E0
3.480128840E-1,1.912967205E0,8.604761124E0,3.921702385E0
3.506555770E-1,2.815581083E0,8.832210541E0,2.853888512E0
3.520305380E-1,3.526659012E0,8.973467827E0,2.269703150E0
3.549489950E-1,3.409343243E0,9.296685219E0,1.826775908E0
3.561473460E-1,1.984793186E0,9.971850395E0,1.130063176E0
3.585220770E-1,-4.118026793E-1,1.095107841E1,1.915361285E-1
3.602679230E-1,-2.794033289E0,1.199255657E1,-6.081272364E-1
3.626528460E-1,-4.417302132E0,1.254082870E1,-8.355764151E-1
3.643895000E-1,-4.963180065E0,1.224873543E1,-3.160346150E-1
3.668430380E-1,-4.276044369E0,1.123838234E1,8.212111592E-1
3.685060380E-1,-2.631227732E0,9.878476143E0,2.181117773E0
3.713299610E-1,-7.709329724E-1,8.595184326E0,3.557783842E0
3.725730000E-1,6.655880809E-1,7.829039574E0,4.944026470E0
3.754870720E-1,1.264138460E0,7.661445618E0,6.361393929E0
3.770195000E-1,6.224924326E-1,7.946355343E0,8.183381081E0
3.795803410E-1,2.202665508E-1,7.999027729E0,8.540117264E0
3.807109610E-1,-4.692635238E-1,7.781155586E0,8.631096840E0
3.836486490E-1,-5.746083856E-1,7.343016624E0,7.570465565E0
3.848942690E-1,-8.379705995E-2,7.613561630E0,6.641515732E0
3.877526870E-1,3.136404157E-1,8.370129585E0,5.841852188E0
3.889710770E-1,3.232172430E-1,9.131484985E0,5.147533417E0
3.918557640E-1,1.101332754E-1,9.689333916E0,4.529829502E0
3.930199610E-1,-1.316810995E-1,9.998186111E0,3.909731388E0
3.959595340E-1,-2.059013397E-1,1.013465595E1,3.090914488E0
3.974987310E-1,1.963245422E-1,1.019690514E1,2.006340981E0
4.000465000E-1,9.409212470E-1,1.017056847E1,8.690952063E-1
4.012356150E-1,1.302445769E0,1.002931118E1,2.011129409E-1
4.041206870E-1,8.547300100E-1,9.806650162E0,2.274491638E-1
4.053075770E-1,-2.896983922E-1,9.679757118E0,9.600749016E-1
4.079235380E-1,-1.781286120E0,9.428366661E0,2.049436569E0
4.094393070E-1,-2.992752075E0,8.841787338E0,3.303998232E0
4.123266490E-1,-3.239354849E0,7.843404770E0,4.546588898E0
4.135428460E-1,-2.427720547E0,6.811503887E0,5.669469833E0
4.164561490E-1,-1.144428372E0,6.220136166E0,6.442796707E0
4.178725770E-1,-6.224924326E-2,6.476315498E0,6.655880928E0
4.200778070E-1,5.027823448E-1,7.515398979E0,6.335057735E0
4.217894230E-1,7.326257229E-1,8.561665535E0,5.444414616E0
4.241593840E-1,1.142034173E0,8.995016098E0,4.252102375E0
4.258764610E-1,2.126051188E0,8.870517731E0,3.292027235E0
4.282886540E-1,4.070142746E0,8.566453934E0,2.375048161E0
4.300072690E-1,4.276044369E0,8.868123055E0,1.589749932E0
4.326098840E-1,2.758120298E0,9.801861763E0,5.315127969E-1
4.341070770E-1,-5.746084079E-2,1.124317074E1,-4.141969085E-1
4.369989950E-1,-3.052607059E0,1.256477070E1,-7.350199223E-1
4.381818840E-1,-5.171475887E0,1.283292103E1,-2.753331959E-1
4.405900000E-1,-5.755661011E0,1.187763500E1,9.720458984E-1
4.423163070E-1,-4.699818134E0,1.016338634E1,2.628833532E0
4.447531540E-1,-2.628833532E0,8.456320763E0,4.247313976E0
4.464158840E-1,-4.836287498E-1,7.402871609E0,5.592854977E0
4.488595380E-1,8.858546019E-1,7.242460251E0,6.703764915E0
4.505309610E-1,1.122880578E0,7.675810814E0,7.709329605E0
4.534056150E-1,5.051765442E-1,8.259995461E0,8.631096840E0
4.546467690E-1,-3.040636182E-1,8.288725853E0,9.059659004E0
4.575381100E-1,-6.200982332E-1,7.647080421E0,8.722076416E0
4.590296150E-1,-1.843535304E-1,7.038952827E0,7.852981567E0
4.616298790E-1,5.961562395E-1,7.163451672E0,6.804321289E0
4.627876920E-1,9.744400978E-1,8.169015884E0,5.765237808E0
4.656967260E-1,6.248866320E-1,9.425971985E0,4.525041103E0
4.669655000E-1,-4.788403213E-2,1.050575733E1,3.217807055E0
4.697989180E-1,-4.094084799E-1,1.125035381E1,2.087743998E0
4.710603840E-1,-1.173158810E-1,1.157835960E1,1.173158884E0
4.739019180E-1,8.667010069E-1,1.125993061E1,2.082955539E-1
4.751046540E-1,2.219424963E0,1.034295177E1,-8.020575643E-1
4.780047260E-1,3.050212860E0,9.097966194E0,-1.101332784E0
4.795502690E-1,1.872265697E0,8.932766914E0,-2.633621991E-1
4.820953020E-1,-5.099649429E-1,9.291896820E0,1.149216771E0
4.832781540E-1,-3.390189648E0,9.662998199E0,2.674323320E0
4.861633410E-1,-5.492298603E0,9.445125580E0,4.455609322E0
4.873499230E-1,-5.755661011E0,8.312667847E0,6.239289761E0
4.900200770E-1,-4.127603531E0,6.746860504E0,7.802703381E0
4.914911150E-1,-1.496376038E0,5.532999992E0,8.966285706E0
4.943581920E-1,1.158793569E0,5.123591423E0,9.598354340E0
4.955579230E-1,2.904166698E0,5.616796970E0,9.023746490E0
4.984716100E-1,3.509899616E0,6.682217121E0,7.474697590E0
4.997228840E-1,3.385401249E0,7.738059998E0,5.647922039E0
5.021285000E-1,3.131615877E0,8.607154846E0,4.357447147E0
5.040391150E-1,2.803610086E0,9.270348549E0,3.552995205E0
5.061851920E-1,1.941697598E0,9.780313492E0,2.497152328E0
5.078993460E-1,3.040636182E-1,1.041477776E1,8.259995580E-1
5.103023840E-1,-1.599326730E0,1.148019695E1,-1.142034173E0
5.119981920E-1,-3.090914488E0,1.267969227E1,-2.604891539E0
5.146882300E-1,-3.854664803E0,1.311783123E1,-3.043030262E0
5.161690770E-1,-3.612850428E0,1.238759995E1,-2.418143749E0
5.190105330E-1,-2.454056740E0,1.090798283E1,-9.935936928E-1
5.204526150E-1,-1.029506683E0,9.375694275E0,7.637503147E-1
5.226377690E-1,-1.675941236E-2,8.528146744E0,2.647987127E0
5.243360770E-1,9.337386489E-2,8.367734909E0,5.631162167E0
5.267355000E-1,-4.836287498E-1,8.279149055E0,7.587224960E0
5.284323840E-1,-1.012747288E0,7.951143742E0,9.198522568E0
5.309596920E-1,-9.816226959E-1,7.450755596E0,9.928754807E0
5.325790380E-1,-4.022258818E-1,7.182605267E0,9.615114212E0
5.354474560E-1,3.711012602E-1,7.254431248E0,8.494627953E0
5.368805770E-1,9.959878922E-1,7.730877399E0,7.084442616E0
5.395504180E-1,1.146822572E0,8.623914719E0,6.069301128E0
5.411211920E-1,7.637503147E-1,9.500192642E0,5.386953831E0
5.436428410E-1,2.489969730E-1,1.003649330E1,4.577713490E0
5.447936150E-1,1.053448766E-1,1.032619190E1,3.452438831E0
5.477008070E-1,5.291185975E-1,1.045069027E1,2.116474390E0
5.490720000E-1,1.264138460E0,1.038365269E1,8.858546019E-1
5.518131870E-1,1.699883223E0,1.003888798E1,2.178723514E-1
5.533548840E-1,1.393425345E0,9.483432770E0,3.040636182E-1
5.559158020E-1,1.891419291E-1,9.143456459E0,1.273715258E0
5.571334230E-1,-1.637633920E0,8.927978516E0,2.614468336E0
5.600184560E-1,-3.397372246E0,8.655038834E0,3.974374771E0
5.616206150E-1,-4.278438568E0,7.726089001E0,5.968744755E0
5.640956150E-1,-3.931279182E0,7.335834026E0,6.593631268E0
5.653514610E-1,-2.585737944E0,6.701370716E0,7.627926826E0
5.681781100E-1,-9.600749016E-1,6.433219910E0,7.982268333E0
5.694770000E-1,4.620809257E-1,6.708553314E0,7.405265808E0
5.720321920E-1,1.572990537E0,7.383718014E0,6.019022942E0
5.735258070E-1,2.504334927E0,7.989450932E0,4.185064793E0
5.763838410E-1,3.691859007E0,8.781931877E0,2.092532396E0
5.776371150E-1,3.854664803E0,9.452308655E0,1.364694953E0
5.804858020E-1,3.023876667E0,1.019929886E1,5.578489900E-1
5.818000770E-1,1.331176162E0,1.103726959E1,-5.147533417E-1
5.842432690E-1,-4.333505034E-1,1.185369301E1,-1.592144132E0
5.858365380E-1,-1.659181833E0,1.242111874E1,-2.049436569E0
5.883219230E-1,-2.147598982E0,1.220803452E1,-1.630451322E0
5.899151920E-1,-1.920149803E0,1.115219116E1,-5.003881454E-1
5.923260770E-1,-1.398213744E0,9.866505623E0,1.247379065E0
5.940590380E-1,-1.247379065E0,8.726864815E0,3.153163671E0
5.967208070E-1,-1.544260144E0,8.135497093E0,4.934449673E0
5.981652690E-1,-2.123656988E0,8.341399193E0,6.833051682E0
6.010004560E-1,-2.796427488E0,8.604761124E0,8.588001251E0
6.021546920E-1,-3.117250681E0,8.358158112E0,9.907206535E0
6.045343840E-1,-2.564189911E0,7.654263020E0,1.055842972E1
6.062900770E-1,-1.098938584E0,6.837840080E0,1.025436592E1
6.086641530E-1,6.607996821E-1,6.473921299E0,9.088389397E0
6.103545770E-1,2.128445387E0,6.761225700E0,7.280767441E0
6.128408070E-1,2.861071110E0,7.800309181E0,5.420472622E0
6.144983070E-1,2.449268341E0,9.167398453E0,4.050989151E0
6.173407300E-1,1.182735682E0,1.025436592E1,2.971204281E0
6.185688840E-1,-1.053448766E-1,1.101572227E1,1.980004787E0
6.214798790E-1,-7.757213712E-1,1.136767006E1,9.026140571E-1
6.230137300E-1,-5.267243832E-2,1.117373943E1,-6.775590777E-1
6.255735710E-1,1.142034173E0,1.072123528E1,-1.170764685E0
6.268047300E-1,1.920149803E0,9.988609314E0,-1.041477680E0
6.296414940E-1,1.604115129E0,9.378087997E0,4.788403399E-3
6.308514610E-1,3.160346150E-1,8.992621422E0,1.726219416E0
6.337446100E-1,-1.434126854E0,8.662221909E0,3.672705412E0
6.349963840E-1,-3.107673883E0,8.121131897E0,5.681440830E0
6.378475710E-1,-3.936067581E0,7.218518257E0,7.422025204E0
6.390934230E-1,-3.533841610E0,6.533776283E0,8.911218643E0
6.419499560E-1,-2.317587137E0,6.332663536E0,9.892841339E0
6.434915380E-1,-8.906430602E-1,6.397306919E0,9.758766174E0
6.460411860E-1,5.075707436E-1,6.706159115E0,8.461109161E0
6.472006150E-1,1.910573006E0,7.213729858E0,6.402095318E0
6.501097630E-1,3.244143248E0,7.819462776E0,4.280832767E0
6.513698460E-1,4.110844135E0,8.621520042E0,2.779668093E0
6.539360770E-1,4.005499363E0,9.442731857E0,1.680729628E0
6.554543070E-1,2.691082716E0,1.022563553E1,5.099649429E-1
6.583154940E-1,5.626373887E-1,1.111149025E1,-7.445967197E-1
6.594893070E-1,-1.343147159E0,1.201410389E1,-1.898601890E0
6.624171480E-1,-2.339135170E0,1.267011547E1,-2.456450939E0
6.636311920E-1,-2.418143749E0,1.250491524E1,-2.248155355E0
6.660477690E-1,-1.812410712E0,1.151850414E1,-1.312022567E0
6.677938460E-1,-1.048660398E0,1.028070164E1,3.184288144E-1
6.706492630E-1,-7.062895298E-1,9.016563416E0,2.207453966E0
6.719271530E-1,-7.924807668E-1,8.085219383E0,4.003105164E0
6.742511530E-1,-1.295263171E0,8.202534676E0,6.921637058E0
6.760718840E-1,-1.965639591E0,8.494627953E0,8.700529099E0
6.785940770E-1,-2.487575531E0,8.312667847E0,9.926360130E0
6.800501530E-1,-2.257732153E0,7.647080421E0,1.033576870E1
6.829581480E-1,-1.149216771E0,6.962338448E0,9.926360130E0
6.841825000E-1,4.070142806E-1,6.615179062E0,8.803479195E0
6.865510380E-1,2.020706177E0,6.854599476E0,7.144298077E0
6.882861150E-1,3.062183857E0,7.800309181E0,5.544970989E0
6.906896150E-1,2.877830505E0,8.927978516E0,4.268861771E0
6.923690380E-1,1.575384736E0,9.880870819E0,3.191470861E0
6.948565000E-1,-9.337386489E-2,1.073799419E1,2.300827742E0
6.965148070E-1,-1.271321058E0,1.130063248E1,1.362300754E0
6.993852300E-1,-1.347935557E0,1.134372807E1,3.878606856E-1
7.005960000E-1,-3.184288144E-1,1.085052204E1,-3.136404157E-1
7.034919170E-1,1.063025594E0,9.878476143E0,-5.410895944E-1
7.050551530E-1,1.735796213E0,9.018958092E0,4.548983276E-2
7.075841480E-1,1.233013868E0,8.611943245E0,1.278503656E0
7.087359610E-1,-2.202665508E-1,8.635885239E0,2.774879694E0
7.116519940E-1,-2.118868589E0,8.662221909E0,4.352658749E0
7.128356530E-1,-3.564966440E0,8.192957878E0,5.779603004E0
7.157546860E-1,-3.696647406E0,7.477091789E0,7.096413612E0
7.170376150E-1,-2.600103140E0,6.880935669E0,8.183381081E0
7.198570320E-1,-9.217676520E-1,6.457161903E0,8.396465302E0
7.212505380E-1,1.312022567E0,6.713341713E0,7.034164429E0
7.239594940E-1,2.262520552E0,7.407660007E0,5.427655220E0
7.255023840E-1,2.827552319E0,8.343792915E0,3.904942989E0
7.280501860E-1,2.949656487E0,9.296685219E0,2.856282711E0
7.292405000E-1,2.396595955E0,9.979032516E0,2.039859772E0
7.321179170E-1,1.194706678E0,1.051293945E1,1.230619669E0
7.333353840E-1,-1.532289088E-1,1.103487587E1,3.399766386E-1
7.359614610E-1,-1.106121182E0,1.152329254E1,-5.458779931E-1
7.374403460E-1,-1.599326730E0,1.176271248E1,-1.015141487E0
7.403229940E-1,-1.649604917E0,1.143470764E1,-9.050082564E-1
7.415150380E-1,-1.381454349E0,1.078827286E1,-2.394201607E-2
7.444253400E-1,-1.149216771E0,1.007719517E1,1.515529633E0
7.456340380E-1,-1.278503656E0,9.275136948E0,3.205836058E0
7.480426920E-1,-1.644816518E0,8.568847656E0,4.797980309E0
7.497541530E-1,-1.900996208E0,8.403648376E0,6.461950302E0
7.525268460E-1,-2.013523579E0,8.513781548E0,7.982268333E0
7.540302300E-1,-2.035071373E0,8.441955566E0,9.026140213E0
7.562780760E-1,-1.659181833E0,7.850587368E0,9.220070839E0
7.579885760E-1,-6.224924326E-1,7.048529625E0,8.645462036E0
7.606042300E-1,8.379706144E-1,6.639121532E0,7.606379032E0
7.620492300E-1,2.013523579E0,6.885724068E0,6.351817131E0
7.649656860E-1,2.444479942E0,7.745242596E0,5.125985622E0
7.662515000E-1,1.972822189E0,8.908824921E0,4.187458992E0
7.685698070E-1,-4.309562966E-2,1.026633644E1,3.406949043E0
7.703416530E-1,-1.261744261E0,1.072841740E1,2.877830505E0
7.727032690E-1,-1.565807939E0,1.087207031E1,2.054224968E0
7.743919230E-1,-7.805097699E-1,1.066377449E1,9.504981041E-1
7.768581920E-1,7.015010715E-1,1.017535686E1,-1.197100803E-2
7.785181920E-1,2.013523579E0,9.543288231E0,-3.782838583E-1
7.813986470E-1,2.300827742E0,9.071630478E0,9.097966552E-2
7.826193840E-1,1.266532660E0,8.911218643E0,1.278503656E0
7.855007240E-1,-6.775590777E-1,9.047688484E0,2.858676910E0
7.873406530E-1,-2.803610086E0,9.085995674E0,4.493916512E0
7.895924550E-1,-4.276044369E0,8.518569946E0,5.839457989E0
7.907344230E-1,-4.326322556E0,7.532158375E0,6.787561893E0
7.936598780E-1,-2.849100113E0,6.703764915E0,7.295132637E0
7.948421530E-1,-5.698199868E-1,6.272808552E0,7.012616634E0
7.977623780E-1,1.453280449E0,6.430825710E0,5.999869347E0
7.990129610E-1,2.707842112E0,7.242460251E0,4.723760128E0
8.018648010E-1,3.117250681E0,8.348581314E0,3.622427225E0
8.030663070E-1,2.741360903E0,9.246406555E0,3.014299870E0
8.059673400E-1,1.922544003E0,9.643844604E0,2.640804529E0
8.075465760E-1,4.501099288E-1,9.950302124E0,1.905784607E0
8.100570700E-1,-7.900865376E-2,1.014662647E1,1.544260144E0
8.111973070E-1,-1.041477680E0,1.069489861E1,6.607996821E-1
8.141237240E-1,-1.719036818E0,1.131260300E1,-1.436520964E-1
8.153024230E-1,-2.209848166E0,1.161906052E1,-3.974374831E-1
8.179924610E-1,-2.566584110E0,1.136767006E1,1.723825186E-1
8.194966150E-1,-2.403778553E0,1.025915432E1,2.379836559E0
8.223266860E-1,-1.939303398E0,9.205705643E0,4.062960148E0
8.235075380E-1,-1.489193439E0,8.183381081E0,5.497087002E0
8.264284170E-1,-1.036689281E0,7.781155586E0,6.739677906E0
8.276719990E-1,-7.661445141E-1,8.106766701E0,7.783549786E0
8.300708070E-1,-9.528923035E-1,8.650250435E0,8.346187592E0
8.317288840E-1,-1.173158884E0,8.753201485E0,8.152256966E0
8.341805380E-1,-6.967126727E-1,8.219294548E0,7.261613846E0
8.360086920E-1,6.368576288E-1,7.457938194E0,6.076483727E0
8.383118460E-1,2.159569979E0,7.127538681E0,4.960785866E0
8.399832690E-1,2.985569477E0,7.563282967E0,4.022258759E0
8.426709230E-1,2.521094322E0,8.683769226E0,3.373430252E0
8.440587300E-1,7.829039693E-1,9.911994934E0,2.937685490E0
8.469636470E-1,-1.364694953E0,1.091755962E1,2.624045134E0
8.481796150E-1,-2.827552319E0,1.149935055E1,2.315192938E0
8.505934610E-1,-2.786850691E0,1.144428444E1,1.805228114E0
8.523346150E-1,-1.122880578E0,1.073081207E1,1.079784989E0
8.546917690E-1,1.259350061E0,9.689333916E0,5.410895944E-1
8.563854990E-1,2.887407303E0,8.710105896E0,6.105214357E-1
8.588839990E-1,2.885013103E0,8.176198959E0,1.362300754E0
8.605104230E-1,1.357512355E0,8.303091049E0,2.698265314E0
8.633570380E-1,-1.082179189E0,8.681375504E0,4.285621166E0
8.646873070E-1,-4.240131378E0,8.475474358E0,6.495469093E0
8.674985700E-1,-4.575319290E0,7.682993412E0,7.546523571E0
8.691790760E-1,-3.387795448E0,6.892906666E0,8.152256966E0
8.715899550E-1,-1.355118155E0,6.404489517E0,7.900865555E0
8.727339990E-1,7.230489254E-1,6.452373505E0,6.804321289E0
8.756567620E-1,2.384624958E0,7.122750282E0,5.303156853E0
8.768500760E-1,3.495534420E0,8.090007782E0,3.797203779E0
8.797587620E-1,3.950432777E0,8.868123055E0,2.640804529E0
8.809652690E-1,3.629609823E0,9.299078941E0,1.941697598E0
8.838611090E-1,2.487575531E0,9.648633003E0,1.529894829E0
8.851135380E-1,6.655880809E-1,1.029746151E1,1.127668977E0
8.879634550E-1,-1.407790542E0,1.115697956E1,4.932055473E-1
8.895048460E-1,-2.978386879E0,1.185129833E1,-3.854664862E-1
8.920538010E-1,-3.605667830E0,1.211944866E1,-9.289502501E-1
8.931976530E-1,-3.349488258E0,1.180341434E1,-5.578489900E-1
8.961216850E-1,-2.444479942E0,1.097980881E1,7.062895298E-1
8.973062300E-1,-1.288080573E0,9.804255486E0,2.288856745E0
9.000308460E-1,-4.620809257E-1,8.595184326E0,3.794809580E0
9.015203460E-1,-1.244984865E-1,7.915230751E0,5.233725071E0
9.043258780E-1,-1.843535304E-1,8.066065788E0,6.742072105E0
9.056019990E-1,-6.200982332E-1,8.544905663E0,8.022970200E0
9.084297620E-1,-1.189918280E0,8.693346024E0,8.667010307E0
9.096394990E-1,-1.335964561E0,8.257601738E0,8.456320763E0
9.120652300E-1,-5.698199868E-1,7.565677166E0,7.539340973E0
9.137584610E-1,8.164227605E-1,7.211335659E0,6.378153324E0
9.161443460E-1,2.398990154E0,7.797914982E0,4.659116745E0
9.180302300E-1,2.159569979E0,8.667010307E0,3.823540211E0
9.202929990E-1,8.930372596E-1,9.567230225E0,3.359065056E0
9.219748460E-1,-7.757213712E-1,1.033098030E1,3.138798475E0
9.245916150E-1,-2.109291792E0,1.084094524E1,2.873042107E0
9.260479610E-1,-2.391807556E0,1.094389629E1,2.315192938E0
9.289664930E-1,-1.426944256E0,1.049139214E1,1.613691926E0
9.301783460E-1,2.513911724E-1,9.739612579E0,1.139639974E0
9.325677690E-1,1.491587639E0,9.002198219E0,1.130063176E0
9.342916530E-1,1.582567334E0,8.540117264E0,1.757344007E0
9.367385760E-1,5.602431893E-1,8.451532364E0,2.839523315E0
9.383131150E-1,-1.182735682E0,8.583212852E0,4.204218388E0
9.407986920E-1,-2.887407303E0,8.386888504E0,5.530605793E0
9.424512690E-1,-3.667917013E0,7.754819393E0,6.619967937E0
9.452941530E-1,-3.181894064E0,7.144298077E0,7.469909191E0
9.465277690E-1,-1.831564307E0,6.722918510E0,7.635109425E0
9.494384160E-1,-1.508347094E-1,6.727706909E0,6.902483463E0
9.509876150E-1,2.363077164E0,7.690176010E0,4.704606533E0
9.535315700E-1,3.028665066E0,8.099584579E0,3.876212597E0
9.547158460E-1,3.914519787E0,8.779537201E0,2.494758129E0
9.575997240E-1,4.206612587E0,9.162610054E0,1.654393315E0
9.588084990E-1,3.821146011E0,9.418789864E0,1.142034173E0
9.617018010E-1,2.432508945E0,9.902418137E0,6.991068721E-1
9.629216530E-1,1.939303428E-1,1.065659142E1,5.027823523E-2
9.658042620E-1,-2.896984100E0,1.203325748E1,-9.313444495E-1
9.670411530E-1,-4.019864559E0,1.244506073E1,-9.193734527E-1
9.699064540E-1,-4.230554581E0,1.198776817E1,-1.101332754E-1
9.714714990E-1,-3.593696833E0,1.086967564E1,1.309628367E0
9.739974540E-1,-2.576161146E0,9.536105156E0,2.839523315E0
9.751494990E-1,-1.462857246E0,8.188169479E0,4.412513733E0
9.780645310E-1,-4.309563041E-1,7.472303391E0,6.033388138E0
9.792341530E-1,1.125274822E-1,7.541735172E0,7.704541206E0
9.818957690E-1,-2.178723514E-1,7.881711960E0,9.081207275E0
9.834273460E-1,-9.337386489E-1,7.984662533E0,9.749189377E0
9.862686470E-1,-1.139639974E0,7.644686222E0,9.504981041E0
9.876202690E-1,-4.692635238E-1,7.144298077E0,8.544905663E0
9.903707240E-1,7.924807668E-1,6.986280441E0,7.271190643E0
9.916223070E-1,2.023100376E0,7.527369976E0,5.937620163E0
9.940461150E-1,2.394201756E0,8.501810074E0,4.714183331E0
9.956791150E-1,1.651999116E0,9.382876396E0,3.593696833E0
9.980548840E-1,3.208230138E-1,1.017296314E1,2.671929121E0
9.998141530E-1,-9.768342972E-1,1.096065521E1,1.970427990E0
1.002336384E0,-1.659181833E0,1.148977375E1,1.194706678E0
1.003946884E0,-1.304839969E0,1.142752457E1,1.556231081E-1
1.006556999E0,-1.963245422E-1,1.078587818E1,-6.919242740E-1
1.008009538E0,8.212111592E-1,9.818621635E0,-7.996633649E-1
1.010906916E0,1.108515382E0,9.093177795E0,5.267243832E-2
1.012110384E0,4.979939461E-1,8.774748802E0,1.522712231E0
1.014503999E0,-1.606509328E0,8.451532364E0,3.897760391E0
1.016215961E0,-2.758120298E0,7.929595947E0,5.425261021E0
1.018642384E0,-2.940079689E0,7.359776020E0,6.976703644E0
1.020425846E0,-2.343923569E0,6.940790653E0,8.317456245E0
1.022808769E0,-1.376665950E0,6.619967937E0,8.753201485E0
1.024464461E0,-1.915361285E-1,6.658275127E0,8.219294548E0
1.027340531E0,1.230619669E0,7.206547260E0,7.065289021E0
1.028527807E0,2.705447912E0,7.831433773E0,5.473145008E0
1.031447493E0,3.916913986E0,8.312667847E0,3.873818398E0
1.033123769E0,4.580107689E0,8.722076416E0,2.631227732E0
1.035539685E0,4.276044369E0,9.296685219E0,1.740584612E0
1.036727307E0,2.693476915E0,1.023042393E1,9.840168953E-1
1.039606416E0,2.178723514E-1,1.126711273E1,-2.873042040E-2
1.040780115E0,-2.238578558E0,1.209790134E1,-1.163581967E0
1.043707608E0,-3.957615376E0,1.243069553E1,-1.731007814E0
1.044926038E0,-4.503493309E0,1.206198788E1,-1.276109457E0
1.047809031E0,-3.888183594E0,1.113782597E1,1.173158810E-1
1.049087653E0,-2.782062292E0,9.916783333E0,1.915361404E0
1.051911031E0,-1.781286120E0,8.671798706E0,3.519476414E0
1.053700461E0,-6.177040339E-1,8.125920296E0,6.062118530E0
1.056001569E0,-3.902548850E-1,8.240841866E0,7.012616634E0
1.057193153E0,-3.519476354E-1,8.360552788E0,8.801085472E0
1.060068954E0,-5.171475410E-1,7.848193169E0,9.900024414E0
1.061253307E0,-2.633621991E-1,6.904877663E0,1.005804157E1
1.063914999E0,1.060631394E0,6.282385349E0,8.973467827E0
1.065378999E0,1.953668594E0,6.943184853E0,7.587224960E0
1.068272339E0,2.147598982E0,8.207323074E0,6.007051945E0
1.069504538E0,1.496376038E0,9.222464561E0,4.458003521E0
1.072374916E0,5.698199868E-1,9.883264542E0,3.306392431E0
1.073588961E0,-1.532289088E-1,1.057518864E1,2.657563925E0
1.076003230E0,-6.368576288E-1,1.119289303E1,1.900996208E0
1.077711384E0,-7.134721279E-1,1.134372807E1,5.267243981E-1
1.080122884E0,-1.915361285E-1,1.100135708E1,-9.528923035E-1
1.081806692E0,6.488286853E-1,1.027591324E1,-1.685518026E0
1.084228038E0,1.103726983E0,9.550470352E0,-1.151610970E0
1.085942884E0,6.248866320E-1,9.093177795E0,3.687070608E-1
1.088618345E0,-7.350199223E-1,8.777143478E0,2.075772762E0
1.090014076E0,-2.489969730E0,8.401253700E0,3.732560396E0
1.092915646E0,-3.790021181E0,7.733271599E0,5.389348030E0
1.094123730E0,-3.995922565E0,7.012616634E0,7.122750282E0
1.096493345E0,-3.282450438E0,6.538564682E0,8.698134422E0
1.098159115E0,-2.161964178E0,6.327875137E0,9.394847870E0
1.100588615E0,-8.690952063E-1,6.710947514E0,9.085995674E0
1.102270230E0,5.985504389E-1,7.520187378E0,7.924807549E0
1.104743730E0,2.157175779E0,8.051700592E0,6.083666325E0
1.106408115E0,3.711012602E0,8.180987358E0,4.237737179E0
1.109252153E0,5.080495834E0,8.334216118E0,2.923320293E0
1.110459922E0,5.494692802E0,8.995016098E0,2.075772762E0
1.113395723E0,2.971204281E0,1.076433086E1,3.375824392E-1
1.114879615E0,4.070143029E-2,1.198537350E1,-1.391031146E0
1.117455646E0,-2.734178305E0,1.282095051E1,-2.588132143E0
1.118720576E0,-4.477157116E0,1.272039318E1,-2.652775526E0
1.121523223E0,-4.630385876E0,1.177229023E1,-1.580173135E0
1.122693230E0,-3.665522814E0,1.050815105E1,1.891419291E-1
1.125625108E0,-2.626439333E0,9.287108421E0,1.977610588E0
1.126826153E0,-1.963245392E0,8.616731644E0,3.718195200E0
1.129727031E0,-1.616086125E0,8.542511940E0,5.681440830E0
1.130904307E0,-1.477222443E0,8.535328865E0,7.836222172E0
1.133829108E0,-1.252167463E0,8.025363922E0,9.730035782E0
1.135391345E0,-4.884171486E-1,6.847416878E0,1.065419769E1
1.137919877E0,8.906430602E-1,5.781997204E0,1.053209305E1
1.139074384E0,2.221819162E0,5.623979568E0,9.643844604E0
1.141986608E0,2.698265314E0,6.507440090E0,8.214506149E0
1.143172422E0,1.896207690E0,8.049305916E0,6.746860504E0
1.145828768E0,2.513911724E-1,9.366117477E0,5.513846397E0
1.147305807E0,-1.201889277E0,1.018972206E1,4.659116745E0
1.150190377E0,-1.865083098E0,1.066856289E1,3.976768970E0
1.151419884E0,-1.618480325E0,1.080503273E1,2.803610086E0
1.154292492E0,-5.985504389E-1,1.057997704E1,9.026140571E-1
1.155500499E0,7.350199223E-1,1.019451046E1,-9.504981041E-1
1.157940653E0,1.783680320E0,9.710882187E0,-2.003946781E0
1.159588307E0,1.968033791E0,9.538499832E0,-1.740584612E0
1.161974499E0,9.888052940E-1,9.713275909E0,-3.687070608E-1
1.163718115E0,-2.066195965E0,9.461885452E0,2.147598982E0
1.166122922E0,-3.857059002E0,8.602366447E0,3.960009575E0
1.167845845E0,-4.376600742E0,7.568071365E0,5.896918774E0
1.170481538E0,-3.770867586E0,6.868964672E0,7.807491779E0
1.171913538E0,-2.638410330E0,6.483498096E0,8.801085472E0
1.174828454E0,-1.223437071E0,6.591237068E0,8.568847656E0
1.176026845E0,3.734954596E-1,7.170634270E0,7.455543995E0
1.178419961E0,1.953668594E0,7.793126583E0,5.887341976E0
1.180142038E0,3.349488258E0,8.164227486E0,4.431667328E0
1.182558076E0,4.364629745E0,8.291120529E0,3.404554844E0
1.184281576E0,4.489128113E0,8.549694061E0,2.758120298E0
1.187160107E0,3.272873640E0,9.332598686E0,2.080561161E0
1.188374615E0,9.361328483E-1,1.058955383E1,9.121908545E-1
1.191262069E0,-1.709460020E0,1.203086376E1,-5.171475410E-1
1.192445076E0,-3.804386616E0,1.299812126E1,-1.458068848E0
1.195363684E0,-4.556165695E0,1.278743172E1,-1.572990537E0
1.196856538E0,-2.947262287E0,1.080503273E1,3.830722719E-2
1.199455415E0,-2.070984364E0,1.001015759E1,8.475474119E-1
1.200649422E0,-6.584054828E-1,8.568847656E0,2.348711967E0
1.203523492E0,-1.149216816E-1,7.627926826E0,3.584120035E0
1.204726538E0,-3.950432837E-1,7.764396191E0,5.284003258E0
1.207626300E0,-1.285686255E0,8.382100105E0,7.450755596E0
1.208837692E0,-2.525882721E0,8.585607529E0,9.481039047E0
1.211727992E0,-3.311181068E0,7.354987621E0,1.079066753E1
1.212903307E0,-2.181117773E0,6.454767704E0,1.055603504E1
1.215829530E0,-1.316810995E-1,6.196194172E0,9.670180321E0
1.217407538E0,1.802833915E0,6.670246124E0,8.312667847E0
1.219920338E0,2.760514498E0,7.661445618E0,6.789956093E0
1.221058115E0,2.573766708E0,8.693346024E0,5.331887245E0
1.223987915E0,1.728613615E0,9.694122314E0,4.209006786E0
1.225162268E0,7.876923680E-1,1.060870743E1,3.244143248E0
1.227836499E0,1.292868853E-1,1.107797146E1,1.817199111E0
1.229314192E0,3.351882473E-2,1.103726959E1,-9.816227108E-2
1.232186384E0,4.477157295E-1,1.076193619E1,-1.685518026E0
1.233394768E0,9.002198577E-1,1.033098030E1,-2.425326347E0
1.236297492E0,7.182605267E-1,9.900024414E0,-2.181117773E0
1.237576538E0,-2.633621991E-1,9.799467087E0,-1.051054597E0
1.239932615E0,-1.697489023E0,1.010353088E1,7.086837292E-1
1.241626230E0,-3.114856482E0,9.909601212E0,2.501940727E0
1.243986538E0,-3.845088005E0,8.652645111E0,4.106055737E0
1.245727576E0,-3.148375273E0,7.139509678E0,5.937620163E0
1.248118884E0,-1.096544385E0,6.282385349E0,7.615955830E0
1.249860191E0,1.072602391E0,5.872976780E0,7.805097580E0
1.252597884E0,1.984793186E0,5.944802761E0,6.593631268E0
1.254046499E0,2.049436569E0,7.055712223E0,5.506663799E0
1.256835646E0,2.267308950E0,8.396465302E0,4.611232281E0
1.258041807E0,1.733402014E0,9.296685219E0,3.833117008E0
1.260434230E0,7.757213712E-1,9.380482674E0,3.371036053E0
1.262150345E0,1.795651317E-1,9.911994934E0,2.662352324E0
1.264641922E0,-4.118026793E-1,1.075235939E1,1.498770237E0
1.266270768E0,-1.343147159E0,1.138442898E1,-2.873042040E-2
1.268781307E0,-2.015917778E0,1.166455078E1,-1.132457376E0
1.270524691E0,-2.001552582E0,1.135330486E1,-1.395819545E0
1.273269223E0,-1.666364431E0,1.064462090E1,-5.003881454E-1
1.274520615E0,-1.462857246E0,9.813833237E0,1.130063176E0
1.277380646E0,-1.584961534E0,9.074024200E0,2.851494312E0
1.278881230E0,-2.157175779E0,8.468291283E0,4.446032524E0
1.281472261E0,-2.949656487E0,8.176198959E0,6.227318764E0
1.282727384E0,-3.584120035E0,8.192957878E0,8.305485725E0
1.285540030E0,-3.833117008E0,8.207323074E0,1.021845245E1
1.286733076E0,-3.390189648E0,7.831433773E0,1.114979744E1
1.289642453E0,-2.090138197E0,6.993463039E0,1.078587818E1
1.290851499E0,-1.915361360E-2,6.148310184E0,9.569623947E0
1.293744722E0,2.291250944E0,5.978321552E0,8.149862289E0
1.294934191E0,3.938461781E0,6.852205276E0,6.979097843E0
1.297847030E0,4.048594952E0,8.212111473E0,5.892130375E0
1.299398115E0,1.707065821E0,9.813833237E0,4.122815132E0
1.301905069E0,7.781155705E-1,1.032140350E1,3.617638826E0
1.303067115E0,-6.967126727E-1,1.137006378E1,2.647987127E0
1.305971838E0,-1.323993564E0,1.218169785E1,1.307234168E0
1.307156115E0,-9.241618514E-1,1.216493893E1,-7.685387731E-1
1.309813730E0,2.849099934E-1,1.142034245E1,-2.791639090E0
1.311299384E0,2.288856745E0,9.995792389E0,-3.775655985E0
1.314154230E0,2.698265314E0,9.512163162E0,-2.853888512E0
1.315352422E0,1.807622313E0,9.612719536E0,-1.034295082E0
1.318278568E0,-2.418143749E-1,9.660603523E0,1.058237195E0
1.319624730E0,-2.523488522E0,8.817844391E0,2.906560898E0
1.321917653E0,-3.761290789E0,7.556100368E0,4.898536682E0
1.323604038E0,-3.356670856E0,6.691793919E0,7.079654217E0
1.325995268E0,-1.922544003E0,6.315904140E0,8.542511940E0
1.327711461E0,-4.070142806E-1,6.279991150E0,8.798690796E0
1.330172499E0,8.954314590E-1,6.397306919E0,8.013393402E0
1.331815999E0,2.078166962E0,6.758831501E0,6.983886242E0
1.334532845E0,3.035847664E0,7.266402245E0,6.315904140E0
1.335940538E0,3.478775024E0,7.656657219E0,5.911283970E0
1.338818222E0,3.055001259E0,8.159439087E0,5.556941986E0
1.340077153E0,1.630451322E0,9.165003777E0,4.955997467E0
1.342410922E0,-4.764461517E-1,1.047702694E1,3.684676409E0
1.344141115E0,-2.612074137E0,1.144428444E1,1.774103403E0
1.346552884E0,-4.084507942E0,1.177468395E1,2.825157940E-1
1.348225884E0,-4.197035789E0,1.152808094E1,3.830722719E-2
1.350798691E0,-2.813186884E0,1.095107841E1,7.350199223E-1
1.352591076E0,-9.121908545E-1,1.001255131E1,1.300051570E0
1.355217922E0,6.416460276E-1,8.492233276E0,1.441309452E0
1.356430307E0,9.672574997E-1,8.374917984E0,2.296039343E0
1.359351068E0,1.072602391E0,8.863334656E0,3.960009575E0
1.360861961E0,3.303998411E-1,8.932766914E0,5.494692802E0
1.363442068E0,-1.149216771E0,8.470685959E0,6.481103897E0
1.364630576E0,-2.008735180E0,8.099584579E0,7.084442616E0
1.367508991E0,-1.625662923E0,7.955932140E0,7.283161640E0
1.368808807E0,-7.565677166E-1,7.771578789E0,6.979097843E0
1.371611607E0,1.484405100E-1,7.627926826E0,6.315904140E0
1.372820576E0,1.098938584E0,8.027758598E0,5.868188381E0
1.375713914E0,1.611297727E0,8.805873871E0,5.925649166E0
1.376885845E0,1.371877551E0,9.387664795E0,6.040570736E0
1.379816145E0,8.044517636E-1,9.804255486E0,5.851428986E0
1.381375153E0,4.429273009E-1,1.015141487E1,5.195417881E0
1.383909645E0,5.051765442E-1,1.013465595E1,3.969586372E0
1.385176191E0,1.005564690E0,9.811438560E0,2.640804529E0
1.387976837E0,1.821987510E0,9.390059471E0,1.616086125E0
1.389162884E0,2.372653961E0,9.117119789E0,9.959878922E-1
1.391825922E0,1.968033791E0,9.193734169E0,8.188169599E-1
1.393309845E0,6.057330370E-1,9.459490776E0,9.648633003E-1
1.396181376E0,-1.127668977E0,9.598354340E0,1.618480325E0
1.397406807E0,-2.489969730E0,9.246406555E0,2.803610086E0
1.400309376E0,-2.942473888E0,8.456320763E0,4.141968727E0
1.401607999E0,-2.518700123E0,7.659051418E0,5.202600479E0
1.404031076E0,-8.379706144E-1,7.022193432E0,5.382165432E0
1.405632961E0,6.177040339E-1,7.206547260E0,4.826710701E0
1.408012038E0,2.059013367E0,7.592013359E0,4.137180328E0
1.409735538E0,3.174711466E0,7.852981567E0,3.639186621E0
1.412142076E0,3.682282209E0,8.034940720E0,3.586514235E0
1.413859961E0,3.397372246E0,8.348581314E0,3.806780815E0
1.416479614E0,2.013523579E0,9.179368973E0,4.053383350E0
1.417934961E0,-3.806780577E-1,1.036928749E1,3.921702385E0
1.420846030E0,-2.952050686E0,1.128147888E1,3.019088268E0
1.422057576E0,-4.793191910E0,1.162863731E1,2.042253971E0
1.424461114E0,-5.260061264E0,1.140837097E1,1.817199111E0
1.426175807E0,-4.086902142E0,1.074996567E1,2.262520552E0
1.428563384E0,-1.853112102E0,9.830592155E0,2.774879694E0
1.430279038E0,1.867477298E-1,8.846575737E0,3.062183857E0
1.432730153E0,1.371877551E0,8.204929352E0,3.533841610E0
1.434486653E0,1.927332401E0,8.080430984E0,4.546588898E0
1.437278530E0,2.075772762E0,8.169015884E0,5.683835030E0
1.438543845E0,1.352723956E0,8.327033043E0,6.624756336E0
1.441379837E0,-1.460463107E-1,8.470685959E0,7.132327080E0
1.442911422E0,-1.663970232E0,8.535328865E0,6.813898087E0
1.445469722E0,-1.807622313E0,8.432378769E0,6.533776283E0
1.446662730E0,-1.659181833E0,7.951143742E0,5.813121796E0
1.449526884E0,-9.289502501E-1,7.513004780E0,5.147533417E0
1.450726961E0,2.585737705E-1,7.656657219E0,4.764461517E0
1.453638645E0,9.840168953E-1,8.829815865E0,4.587290287E0
1.454865807E0,-8.619125932E-2,9.528923035E0,4.544194698E0
1.457740645E0,-1.335964561E0,1.006522369E1,4.402936935E0
1.459053191E0,-2.011129379E0,1.057758331E1,4.364629745E0
1.461842491E0,-1.963245392E0,1.040998936E1,3.926490784E0
1.463394345E0,-8.762778044E-1,9.603142738E0,2.856282711E0
1.465927999E0,1.151610970E0,8.966285706E0,1.721431017E0
1.467090961E0,3.026270866E0,8.808267593E0,7.948749661E-1
1.470000106E0,3.404554844E0,9.071630478E0,4.022258818E-1
1.471243268E0,2.281674147E0,9.382876396E0,5.291185975E-1
1.473865499E0,3.782838583E-1,9.488221169E0,1.134851575E0
1.475339691E0,-1.642422318E0,9.315838814E0,2.286462545E0
1.478203307E0,-2.961627483E0,8.777143478E0,3.497928619E0
1.479392461E0,-3.007117271E0,8.109161377E0,4.357447147E0
1.482306914E0,-2.020706177E0,7.580042362E0,4.738125324E0
1.483596884E0,-5.817909837E-1,7.357381821E0,4.702212334E0
1.485939037E0,9.744400978E-1,7.565677166E0,4.517858505E0
1.487728268E0,2.451662540E0,7.848193169E0,4.232948780E0
1.490011191E0,3.564966440E0,7.927201748E0,4.000710964E0
1.491735230E0,3.976768970E0,8.044517517E0,4.189853191E0
1.494152422E0,3.416525841E0,8.441955566E0,4.697423935E0
1.495865230E0,1.608903527E0,9.296685219E0,5.173870087E0
1.498464614E0,-1.189918280E0,1.029267311E1,5.181052685E0
1.499969499E0,-3.900154591E0,1.091277122E1,4.422090530E0
1.502845183E0,-5.738901615E0,1.096783829E1,3.174711466E0
1.504060230E0,-4.805162907E0,1.084573364E1,3.088520288E0
1.506451922E0,-2.501940727E0,1.041956615E1,3.136404276E0
1.508170037E0,-1.651999205E-1,9.516951561E0,2.942473888E0
1.510582384E0,1.323993564E0,8.520963669E0,2.901772499E0
1.512275037E0,2.135627985E0,8.200140953E0,3.536235809E0
1.514748076E0,2.621650934E0,8.633491516E0,4.467580318E0
1.516376961E0,2.185906172E0,9.085995674E0,4.867412090E0
1.519277837E0,6.943184733E-1,9.263166428E0,4.793191910E0
1.520886499E0,-6.512228847E-1,9.349357605E0,4.587290287E0
1.523379260E0,-1.118092179E0,9.232041359E0,4.338293552E0
1.524964499E0,-1.029506683E0,8.793902397E0,3.983951569E0
1.527471760E0,-6.392518282E-1,8.310274124E0,3.651157618E0
1.528651153E0,1.915361285E-1,8.286332130E0,3.605667830E0
1.531538461E0,8.499416113E-1,8.810662270E0,4.074931145E0
1.532717537E0,3.639186621E-1,9.318233490E0,4.888959885E0
1.535642260E0,-8.547300100E-1,9.550470352E0,5.612008572E0
1.536850614E0,-1.790862918E0,9.854534149E0,6.205770969E0
1.539744183E0,-1.912967205E0,9.876082420E0,6.339846134E0
1.541160730E0,-1.063025594E0,9.258378029E0,5.614402771E0
1.543846221E0,7.278373241E-1,8.516175270E0,4.584896088E0
1.545391461E0,3.404554844E0,7.912836552E0,3.332728863E0
1.547937337E0,3.670311213E0,7.922413349E0,3.169923067E0
1.549227114E0,2.954444885E0,8.180987358E0,3.215412855E0
1.552004760E0,-2.250549644E-1,8.822632790E0,3.691859007E0
1.553437230E0,-2.647987127E0,8.966285706E0,4.091690540E0
1.555853922E0,-4.074931145E0,8.607154846E0,4.331110954E0
1.557373730E0,-3.864241600E0,8.121131897E0,4.462791920E0
1.560209837E0,-2.351106167E0,7.740454197E0,4.220977783E0
1.561476999E0,-3.208230138E-1,7.663839817E0,3.387795448E0
1.564311914E0,1.675941229E0,8.018181801E0,2.245761156E0
1.565533653E0,3.404554844E0,8.468291283E0,1.213860273E0
1.568016076E0,4.589684486E0,8.757989883E0,8.667010069E-1
1.569677845E0,4.934449673E0,8.911218643E0,1.300051570E0
1.572109460E0,4.139574528E0,9.191340446E0,2.025494576E0
1.573745922E0,2.035071373E0,9.888052940E0,2.547430515E0
1.576165037E0,-8.690952063E-1,1.089361763E1,2.571372509E0
1.577844230E0,-3.440467834E0,1.154962921E1,1.999158382E0
1.580555230E0,-4.960785866E0,1.144907284E1,1.501164436E0
1.581920268E0,-5.082890034E0,1.093192482E1,1.953668594E0
1.584851106E0,-3.734954596E0,1.042195988E1,3.303998232E0
1.586073768E0,-1.711854219E0,9.560047150E0,4.563348293E0
1.588450730E0,-1.747767180E-1,8.164227486E0,5.276820660E0
1.590160268E0,7.134721279E-1,6.864176273E0,5.901707172E0
1.592574576E0,1.474828243E0,6.718130112E0,7.105990410E0
1.594264922E0,1.685518026E0,7.453149796E0,8.441955566E0
1.596737499E0,-3.758896589E-1,8.331821442E0,9.002198219E0
1.598371537E0,-2.008735180E0,8.401253700E0,8.293514252E0
1.601280576E0,-2.444479942E0,8.236053467E0,7.187393665E0
1.602534037E0,-1.728613615E0,7.989450932E0,6.162675381E0
1.605386760E0,-2.944868207E-1,7.718906403E0,5.216965675E0
1.606970345E0,1.228225470E0,7.920019150E0,4.539406300E0
1.609478337E0,1.788468719E0,8.588001251E0,4.010287762E0
1.610654576E0,8.020575643E-1,9.595960617E0,3.627215624E0
1.613546606E0,-1.029506683E0,1.074517727E1,3.402160645E0
1.614755114E0,-2.334346771E0,1.163103199E1,3.282450438E0
1.617649337E0,-2.171540976E0,1.144428444E1,2.774879694E0
1.618905422E0,-5.626373887E-1,1.019451046E1,1.857900500E0
1.621752183E0,1.807622313E0,8.844181061E0,1.086967587E0
1.622986076E0,3.742137194E0,8.183381081E0,7.709329724E-1
1.625854644E0,4.036623955E0,8.248024940E0,1.070208192E0
1.627410076E0,2.463633537E0,8.532935143E0,1.757344007E0
1.629945144E0,-2.274491638E-1,8.702922821E0,2.817975283E0
1.631212307E0,-2.772485495E0,8.580819130E0,4.194641590E0
1.634012721E0,-4.170699596E0,8.195352554E0,5.647922039E0
1.635235884E0,-4.127603531E0,7.582436562E0,6.696582317E0
1.637873307E0,-2.992752075E0,6.931213856E0,6.828263283E0
1.639506076E0,-1.429338455E0,6.761225700E0,6.311115742E0
1.642217144E0,3.064578176E-1,7.192182064E0,5.571307182E0
1.643478153E0,2.193088770E0,7.812280178E0,4.807557106E0
1.646318990E0,4.110844135E0,8.169015884E0,4.137180328E0
1.647554884E0,5.846640587E0,8.394071579E0,3.476380825E0
1.650000730E0,5.224148273E0,8.966285706E0,3.217807055E0
1.651690691E0,2.968810081E0,9.935936928E0,2.772485495E0
1.654055307E0,-2.178723514E-1,1.090558910E1,1.965639591E0
1.655759537E0,-3.184288263E0,1.148977375E1,1.108515382E0
1.658148384E0,-4.984727859E0,1.149216843E1,5.913678408E-1
1.660688067E0,-5.240907669E0,1.124317074E1,9.097966552E-1
1.662499999E0,-4.113238335E0,1.076672459E1,1.805228114E0
1.663946884E0,-2.351106167E0,9.818621635E0,2.724601507E0
1.666860298E0,-8.283938169E-1,8.449137688E0,3.624821424E0
1.668129422E0,3.088520169E-1,7.491456985E0,4.843470097E0
1.670466076E0,1.086967587E0,7.601590633E0,6.560112476E0
1.672207922E0,1.122880578E0,8.243236542E0,8.094796181E0
1.674641614E0,3.830722570E-1,8.432378769E0,8.674192429E0
1.676303230E0,-4.884171486E-1,7.764396191E0,8.159439087E0
1.678749422E0,-6.871358752E-1,7.134721279E0,7.568071365E0
1.680437191E0,-3.591302410E-2,7.161057472E0,7.388506413E0
1.683295682E0,6.607996821E-1,7.338228226E0,6.840234280E0
1.684550922E0,5.578489900E-1,7.951143742E0,6.148310184E0
1.687398144E0,-3.112462163E-1,9.212887764E0,5.786785603E0
1.688925345E0,-1.405396342E0,1.078827286E1,5.027823448E0
1.691490913E0,-1.568202138E0,1.108994198E1,4.771644115E0
1.692628883E0,-1.278503656E0,1.119768143E1,4.249708176E0
1.695548691E0,1.491587639E0,9.782708168E0,2.274491549E0
1.696763191E0,3.550601006E0,8.853757858E0,1.151610970E0
1.699661490E0,4.314351559E0,8.135497093E0,4.740519226E-1
1.700868345E0,3.383007050E0,8.058882713E0,7.900865674E-1
1.703764259E0,1.067813993E0,8.772355080E0,2.427720547E0
1.704955537E0,-1.881842494E0,9.224859238E0,4.240131378E0
1.707866413E0,-4.328716755E0,8.635885239E0,5.274426460E0
1.709421653E0,-4.984727859E0,7.515398979E0,5.755661011E0
1.711955952E0,-3.591302633E0,6.639121532E0,6.119579315E0
1.713105345E0,-1.431732655E0,6.337451935E0,6.337451935E0
1.716023413E0,1.221042871E-1,6.612784863E0,6.009446144E0
1.717197730E0,7.541735172E-1,7.398083210E0,5.082890034E0
1.719976999E0,1.127668977E0,8.439560890E0,3.981557369E0
1.721440653E0,2.159569979E0,9.263166428E0,3.086126089E0
1.724229067E0,4.079719543E0,9.617507935E0,2.576161146E0
1.725616576E0,5.916072369E0,9.607931137E0,2.195482969E0
1.728331413E0,6.416460514E0,9.672574997E0,1.618480325E0
1.729546422E0,5.085284233E0,1.010113716E1,7.326257229E-1
1.732006960E0,2.233790159E0,1.095826149E1,-1.388636976E-1
1.733672730E0,-1.290474772E0,1.179623222E1,-4.453215301E-1
1.736071653E0,-4.115632534E0,1.211705494E1,9.097966552E-2
1.737815960E0,-5.094861031E0,1.179862595E1,1.386242747E0
1.740244807E0,-4.247313976E0,1.053927612E1,2.726995707E0
1.741938191E0,-1.702277422E0,7.699752808E0,4.429273129E0
1.744565653E0,-4.525041282E-1,6.828263283E0,6.098031521E0
1.745982614E0,-1.005564705E-1,6.983886242E0,8.022970200E0
1.748870951E0,-7.445967197E-1,7.388506413E0,9.466673851E0
1.750182576E0,-1.740584612E0,7.441178799E0,1.013704967E1
1.752492383E0,-1.872265697E0,7.237671852E0,1.011789608E1
1.754203345E0,-7.972691655E-1,7.168240070E0,9.612719536E0
1.756621691E0,5.722141862E-1,7.264008045E0,8.597578049E0
1.758295153E0,1.213860273E0,7.455543995E0,7.163451672E0
1.760765845E0,9.696516991E-1,7.829039574E0,5.710171223E0
1.762461653E0,2.418143749E-1,8.647856712E0,4.735731125E0
1.765306451E0,-5.578489900E-1,9.909601212E0,4.223371983E0
1.766516383E0,-9.959878922E-1,1.116176796E1,3.612850428E0
1.769408490E0,-5.650315881E-1,1.157117653E1,2.178723574E0
1.771022307E0,5.793967843E-1,1.106599998E1,4.548983276E-1
1.773500567E0,1.620874524E0,1.009395409E1,-3.327940404E-1
1.774650114E0,1.833958507E0,8.887276649E0,-2.394201607E-2
1.777567644E0,9.074024558E-1,8.252813339E0,1.374271750E0
1.778812768E0,-1.007958889E0,8.355764389E0,3.344699860E0
1.781669874E0,-3.236960649E0,8.346187592E0,4.975151062E0
1.782882268E0,-4.649539471E0,7.601590633E0,5.978321552E0
1.785772105E0,-4.441244125E0,6.461950302E0,6.845022678E0
1.786962730E0,-2.899378300E0,5.722142220E0,7.941566944E0
1.789875490E0,-6.584054828E-1,5.846640587E0,8.772355080E0
1.791412845E0,-3.711012602E-1,6.718130112E0,8.037335396E0
1.793964499E0,-3.830722570E-1,8.037335396E0,6.581660271E0
1.795114460E0,4.309563041E-1,9.126696587E0,4.546588898E0
1.798034413E0,2.398990154E0,9.737217903E0,2.643198729E0
1.799234806E0,5.097255230E0,1.017296314E1,1.338358760E0
1.801899114E0,7.568071365E0,1.032858658E1,-2.154781520E-1
1.803394730E0,8.204929352E0,1.050096893E1,-2.126051188E0
1.806237990E0,6.629544735E0,1.112585545E1,-3.663128614E0
1.807546460E0,3.749319792E0,1.186805820E1,-4.412513733E0
1.810340797E0,5.051765442E-1,1.272757626E1,-3.392583847E0
1.811558922E0,-2.068590164E0,1.283052731E1,-1.290474772E0
1.813974845E0,-3.488351822E0,1.208114147E1,1.012747288E0
1.815656537E0,-3.730166197E0,1.014902115E1,2.626439333E0
1.818081306E0,-3.675099611E0,8.267178535E0,4.115632534E0
1.819772499E0,-3.086126089E0,7.852981567E0,7.194576263E0
1.822175845E0,-1.843535304E0,7.584830761E0,9.979032516E0
1.823899076E0,-9.050082564E-1,6.555324078E0,1.167652130E1
1.826603191E0,-2.394201756E-1,5.329493046E0,1.258871269E1
1.828058114E0,1.177947283E0,4.869806290E0,1.283292103E1
1.830876797E0,2.351106167E0,5.580883980E0,1.265096188E1
1.832087153E0,1.898601890E0,6.742072105E0,1.182017422E1
1.834505883E0,1.244984865E-1,7.627926826E0,9.998186111E0
1.836230883E0,-1.649604917E0,8.659827232E0,8.374917984E0
1.838711114E0,-1.960851192E0,1.036449909E1,6.380547523E0
1.840360345E0,-1.532289088E-1,1.109951878E1,4.244919777E0
1.842827537E0,2.770091295E0,1.140358257E1,1.012747288E0
1.844560653E0,5.607220173E0,1.134372807E1,-2.238578558E0
1.847286076E0,6.801927090E0,1.098459721E1,-3.969586372E0
1.848527730E0,5.647922039E0,1.050575733E1,-3.454833031E0
1.851411336E0,2.549824715E0,1.006522369E1,-1.491587639E0
1.852973999E0,-1.570596337E0,9.739612579E0,8.619126081E-1
1.855502336E0,-5.219359875E0,9.208099365E0,2.803610086E0
1.856670153E0,-6.921637058E0,8.269572258E0,4.340687752E0
1.859568720E0,-6.313509941E0,7.077260017E0,5.899312973E0
1.860936230E0,-4.333505154E0,5.856217384E0,7.364564419E0
1.863669374E0,-2.264914751E0,5.334281445E0,8.659827232E0
1.865169422E0,-6.320692301E-1,5.827486992E0,9.306262016E0
1.867771143E0,5.554547906E-1,7.055712223E0,8.815450668E0
1.869099345E0,1.877054095E0,8.207323074E0,7.146692276E0
1.871873028E0,3.952826977E0,8.748413086E0,4.711789131E0
1.873425383E0,7.989450932E0,9.038111687E0,1.704671621E0
1.875963105E0,9.004592896E0,9.196128845E0,8.331822157E-1
1.877135653E0,9.495404243E0,9.971850395E0,-7.948749661E-1
1.880030836E0,7.690176010E0,1.113064384E1,-2.652775526E0
1.881239422E0,4.235342979E0,1.215057373E1,-4.493916512E0
1.883892614E0,3.926490843E-1,1.285446930E1,-4.659116745E0
1.885390691E0,-2.506729126E0,1.276588345E1,-2.774879694E0
1.888236220E0,-4.268861771E0,1.071644688E1,1.649604917E0
1.889659460E0,-4.592078686E0,8.865729332E0,4.017470360E0
1.892364912E0,-4.661510944E0,7.594407558E0,5.767632008E0
1.893761576E0,-4.304774761E0,7.460332394E0,7.922413349E0
1.896083537E0,-3.224989653E0,7.716512203E0,1.041956615E1
1.897688537E0,-1.505952835E0,7.364564419E0,1.252885723E1
1.900107037E0,8.954314590E-1,6.081272125E0,1.353921032E1
1.901791268E0,3.462015629E0,4.783615112E0,1.336443424E1
1.904264499E0,5.188235283E0,4.592078686E0,1.284010410E1
1.905925845E0,4.922478676E0,5.386953831E0,1.173637676E1
1.908543806E0,2.494758129E0,6.890512466E0,1.037168217E1
1.910039653E0,-7.182605267E-1,8.729259491E0,8.645462036E0
1.912901374E0,-2.968810081E0,1.059913063E1,6.524199486E0
1.914098153E0,-3.141192675E0,1.225352383E1,4.012681961E0
1.916521845E0,-9.121908545E-1,1.312980175E1,6.296750307E-1
1.918231191E0,2.856282711E0,1.305318737E1,-2.858676910E0
1.920628537E0,6.344634533E0,1.191115379E1,-5.324704647E0
1.922322383E0,7.738059998E0,9.888052940E0,-5.944802761E0
1.924772806E0,6.258443356E0,8.425195694E0,-4.134786129E0
1.926458499E0,2.293645144E0,8.377311707E0,-7.374141216E-1
1.929285306E0,-3.198653460E0,9.009381294E0,2.451662540E0
1.930520229E0,-8.226476669E0,9.150638580E0,4.699818134E0
1.933436528E0,-1.060870743E1,7.963114738E0,7.680599213E0
1.935098537E0,-8.259995461E0,6.907271862E0,1.009874249E1
1.937528258E0,-4.067748547E0,5.973533154E0,1.175313568E1
1.938670229E0,4.261679053E-1,5.394136429E0,1.164060879E1
1.941595374E0,4.299986362E0,5.269638062E0,9.636661530E0
1.942766499E0,7.309497833E0,5.810727596E0,6.775590897E0
1.945697643E0,9.346963882E0,7.007828236E0,4.367023945E0
1.946909653E0,9.854534149E0,8.580819130E0,3.011905670E0
1.949774528E0,8.437167168E0,1.004607010E1,1.972822189E0
1.951020076E0,5.406107426E0,1.128626728E1,3.256114423E-1
1.953887028E0,1.771709204E0,1.246421432E1,-1.896207690E0
1.955448768E0,-1.347935557E0,1.330936718E1,-3.936067581E0
1.957977566E0,-3.153163671E0,1.335006905E1,-4.714183331E0
1.959162806E0,-3.184288263E0,1.260786629E1,-3.581725836E0
1.962044335E0,-1.893813491E0,1.114500904E1,-1.400607944E0
1.963228691E0,-8.307880163E-1,9.342175484E0,6.943184733E-1
1.965923691E0,-8.619126081E-1,8.039729118E0,2.432508945E0
1.967443229E0,-1.649604917E0,7.910442352E0,4.467580318E0
1.970249758E0,-2.466027737E0,8.576030731E0,7.311892033E0
1.971491614E0,-2.925714493E0,8.789113998E0,1.026873112E1
1.974352297E0,-2.468421936E0,7.891288757E0,1.248576164E1
1.975584614E0,-4.668693244E-1,6.023811340E0,1.304121685E1
1.978010076E0,2.049436569E0,4.285621166E0,1.214817905E1
1.979684960E0,3.600879431E0,4.137180328E0,1.128866100E1
1.982051422E0,3.684676409E0,5.492298603E0,1.043632507E1
1.983784499E0,7.900865674E-1,8.331821442E0,8.291120529E0
1.986192576E0,-1.874659896E0,9.825803757E0,6.150704384E0
1.987904153E0,-2.944868088E0,1.133893967E1,3.588908434E0
1.990537076E0,-1.884236693E0,1.340752983E1,1.644816518E0
1.991987152E0,9.888052940E-1,1.373792934E1,-1.314416766E0
1.994891104E0,3.746925592E0,1.168609810E1,-4.422090530E0
1.996130229E0,4.984727859E0,9.145850182E0,-4.910507679E0
1.998503460E0,4.376600742E0,7.843404770E0,-2.583343744E0
2.000366652E0,1.570596337E0,7.927201748E0,9.983820915E-1
2.002636422E0,-3.406949043E0,8.025363922E0,3.488351822E0
2.004334729E0,-8.291120529E0,7.893682957E0,4.879383087E0
2.006814845E0,-1.006282997E1,8.549694061E0,7.120356083E0
2.008453191E0,-8.327033043E0,8.896853447E0,9.677363396E0
2.011323374E0,-5.106832027E0,7.410054207E0,1.086009884E1
2.012530076E0,-1.240196466E0,5.365406036E0,1.069489861E1
2.015429912E0,3.256114244E0,4.807557106E0,9.971850395E0
2.016942576E0,8.377311707E0,6.057330132E0,7.273584843E0
2.019521027E0,9.085995674E0,6.543353081E0,5.880159378E0
2.020737268E0,9.368511200E0,7.747636795E0,3.145981073E0
2.023588104E0,8.523358345E0,9.627084732E0,1.376665950E0
2.024849076E0,6.253654957E0,1.147301483E1,1.005564705E-1
2.027690450E0,3.028665066E0,1.265335560E1,-1.673547029E0
2.028942460E0,2.489969730E-1,1.348174953E1,-3.703830004E0
2.031792873E0,-1.821987510E0,1.357512379E1,-5.312733650E0
2.033207806E0,-1.903390408E0,1.241633034E1,-4.510675907E0
2.035895566E0,-1.240196466E0,1.091516590E1,-2.319981337E0
2.037451922E0,-8.044517636E-1,9.471462250E0,1.795651317E-1
2.039987143E0,-1.398213744E0,8.336610794E0,2.365471363E0
2.041143076E0,-2.837129116E0,8.044517517E0,4.795586109E0
2.044054335E0,-4.067748547E0,8.473079681E0,7.955932140E0
2.045262729E0,-4.175487995E0,8.377311707E0,1.076433086E1
2.048015999E0,-3.258508444E0,7.067683220E0,1.271081638E1
2.049477422E0,-1.417367458E0,5.183446884E0,1.348174953E1
2.052258527E0,1.000776291E0,4.319139957E0,1.334528065E1
2.053485960E0,2.664746523E0,5.329493046E0,1.275151825E1
2.056361066E0,2.533065319E0,6.912060261E0,1.116655636E1
2.057704191E0,1.149216771E0,7.924807549E0,8.590395927E0
2.060026383E0,5.027823523E-2,9.085995674E0,6.821080685E0
2.061715806E0,1.795651317E-1,1.043871975E1,5.829881191E0
2.064091114E0,1.290474772E0,1.110430717E1,3.816357613E0
2.065804076E0,2.736572504E0,1.108754826E1,4.620809257E-1
2.068219152E0,3.988739967E0,1.092953110E1,-2.810792685E0
2.069946191E0,4.192247391E0,1.064222622E1,-4.474762917E0
2.072637960E0,2.619256735E0,1.022563553E1,-3.684676409E0
2.074025499E0,-3.806780577E-1,9.770736694E0,-1.290474772E0
2.076901258E0,-3.885789394E0,9.267954826E0,1.204283476E0
2.078117883E0,-7.726089001E0,8.750806808E0,4.321534157E0
2.080510537E0,-7.845798969E0,8.233659744E0,6.054935932E0
2.082252614E0,-6.107608318E0,7.177816868E0,7.326257229E0
2.084668037E0,-3.390189648E0,5.966350555E0,8.147468567E0
2.086351806E0,-2.130839527E-1,5.521028996E0,8.695740700E0
2.088970768E0,2.959233284E0,6.090848923E0,8.576030731E0
2.090513999E0,5.564124584E0,6.883329868E0,6.993463039E0
2.093335296E0,7.287950039E0,7.580042362E0,4.321534157E0
2.094768806E0,8.264783859E0,8.647856712E0,2.262520552E0
2.097437450E0,8.406042099E0,1.010353088E1,1.544260144E0
2.098969152E0,7.127538681E0,1.122641182E1,1.072602391E0
2.101529912E0,4.374206543E0,1.176031876E1,-2.178723514E-1
2.102723806E0,1.304839969E0,1.210268974E1,-2.188300371E0
2.105597296E0,-7.948749661E-1,1.231337929E1,-3.787626982E0
2.106907960E0,-1.680729628E0,1.212902546E1,-3.794809580E0
2.109700412E0,-1.841141105E0,1.138203526E1,-1.996764183E0
2.110934729E0,-2.042253971E0,1.013944435E1,6.272808313E-1
2.113802989E0,-2.801215887E0,8.664615631E0,3.074155092E0
2.115136614E0,-3.830722809E0,7.723694801E0,5.262455463E0
2.117907027E0,-4.577713490E0,7.781155586E0,7.740454197E0
2.119483691E0,-4.623203278E0,8.116343498E0,1.139640045E1
2.121998489E0,-4.316745758E0,7.752425194E0,1.216493893E1
2.123239037E0,-3.138798475E0,6.416460514E0,1.291671848E1
2.126066181E0,-1.201889277E0,5.142745018E0,1.287841129E1
2.127245614E0,8.355764151E-1,4.623203278E0,1.211226654E1
2.129906575E0,2.300827742E0,5.489904404E0,9.610325813E0
2.131399537E0,1.774103403E0,7.230489254E0,7.730877399E0
2.134272758E0,5.291185975E-1,9.342175484E0,6.196194172E0
2.135506152E0,-4.812345505E-1,1.120246983E1,4.797980309E0
2.138375335E0,-6.416460276E-1,1.233492756E1,3.086126089E0
2.139621383E0,4.022258818E-1,1.241633034E1,6.655880809E-1
2.142025883E0,2.612074137E0,1.158075333E1,-2.200271368E0
2.143719191E0,4.936843872E0,1.050096893E1,-4.144362926E0
2.146097652E0,5.839457989E0,9.619902611E0,-4.390965939E0
2.147958345E0,4.328716755E0,9.284713745E0,-2.995146275E0
2.150229883E0,6.584054828E-1,9.548076630E0,-7.110779285E-1
2.152039845E0,-3.878606796E0,9.962273598E0,1.582567334E0
2.154579691E0,-7.548917770E0,9.957485199E0,3.801992416E0
2.156017152E0,-8.638279915E0,9.121908188E0,5.959167957E0
2.158910719E0,-6.787561893E0,7.706935406E0,7.893682957E0
2.160183960E0,-3.363853455E0,6.222530365E0,9.102754593E0
2.162545999E0,1.197100803E-2,5.243301868E0,9.241618156E0
2.164334037E0,2.604891539E0,5.216965675E0,8.420407295E0
2.166723499E0,4.414907932E0,5.954379559E0,6.890512466E0
2.168376806E0,5.612008572E0,7.108384609E0,5.181052685E0
2.170869268E0,6.354211330E0,8.504204750E0,3.948038578E0
2.172487114E0,6.528987885E0,9.782708168E0,3.169923067E0
2.175343911E0,4.996698856E0,1.095826149E1,1.762132406E0
2.176653152E0,2.918531895E0,1.131739140E1,2.489969730E-1
2.179446450E0,8.427590132E-1,1.158554173E1,-1.383848548E0
2.180970960E0,-6.081272364E-1,1.186805820E1,-2.456450939E0
2.183538565E0,-1.359906554E0,1.204283428E1,-2.513911724E0
2.184736614E0,-1.714248419E0,1.184890461E1,-1.584961534E0
2.187606181E0,-2.126051188E0,1.087685871E1,-2.011129409E-1
2.188967960E0,-2.777273893E0,9.330204010E0,1.479616642E0
2.191709450E0,-3.366247654E0,7.982268333E0,3.737348795E0
2.192944960E0,-3.359065056E0,7.496245384E0,6.500257492E0
2.195812257E0,-3.119644880E0,7.752425194E0,9.129091263E0
2.197104306E0,-3.220201254E0,7.927201748E0,1.075475407E1
2.199914488E0,-3.315969467E0,7.829039574E0,1.135330486E1
2.201526460E0,-2.571372509E0,7.450755596E0,1.135091019E1
2.203973796E0,-6.919242740E-1,6.655880928E0,1.072123528E1
2.205266460E0,1.642422318E0,5.877765179E0,9.646238327E0
2.208042104E0,3.567360640E0,5.963956356E0,8.477868080E0
2.209292152E0,4.412513733E0,6.818686485E0,6.880935669E0
2.211910114E0,3.351882458E0,8.104372978E0,4.996698856E0
2.213389691E0,9.720458984E-1,1.007958889E1,4.053383350E0
2.216247911E0,-1.031900883E0,1.165257931E1,2.932897091E0
2.217475075E0,-1.936909199E0,1.283770943E1,1.869871497E0
2.220350680E0,-1.161187768E0,1.265335560E1,1.244984865E-1
2.221617114E0,7.996633649E-1,1.076193619E1,-2.612074137E0
2.224159922E0,2.351106167E0,9.821015358E0,-3.141192675E0
2.225855652E0,2.827552319E0,9.619902611E0,-2.039859772E0
2.228087268E0,2.873041928E-1,9.701305389E0,-8.331822157E-1
2.229945883E0,-3.840299606E0,9.114726067E0,3.232172430E-1
2.232224306E0,-6.433219910E0,8.920795441E0,2.181117773E0
2.233947422E0,-6.174646378E0,9.442731857E0,5.334281445E0
2.236560114E0,-4.357447147E0,8.556877136E0,7.146692276E0
2.238090345E0,-2.300827742E0,6.330269337E0,6.950367451E0
2.240889180E0,6.464344263E-2,5.284003258E0,6.744466305E0
2.242122383E0,2.750937700E0,5.904101372E0,6.801927090E0
2.244513383E0,4.563348293E0,6.806715488E0,6.287173748E0
2.246362345E0,5.044582844E0,7.690176010E0,5.442020416E0
2.248719691E0,5.003881454E0,8.523358345E0,4.563348293E0
2.250353152E0,4.613626480E0,9.392453194E0,4.094084740E0
2.252920114E0,3.371036053E0,1.019690514E1,4.122815132E0
2.254489922E0,1.405396342E0,1.042914295E1,3.596091032E0
2.257327603E0,-5.674257874E-1,1.058955383E1,2.612074137E0
2.258723922E0,-1.956062794E0,1.083615685E1,1.558625340E0
2.261430296E0,-2.480392933E0,1.106121159E1,6.751648784E-1
2.262970537E0,-2.260126352E0,1.110430717E1,5.267243981E-1
2.265523026E0,-2.178723574E0,1.077151299E1,6.895300746E-1
2.266921768E0,-2.233790159E0,9.662998199E0,1.505952835E0
2.269590680E0,-2.272097349E0,8.422801971E0,2.846705914E0
2.270866575E0,-2.015917778E0,7.733271599E0,4.314351559E0
2.273693949E0,-1.903390408E0,8.427590370E0,6.129156113E0
2.275139383E0,-2.209848166E0,9.193734169E0,6.588842869E0
2.277796988E0,-2.082955360E0,9.643844604E0,6.811503887E0
2.279023037E0,-1.149216771E0,9.138668060E0,6.734889507E0
2.281900065E0,4.716577232E-1,7.716512203E0,6.282385349E0
2.283579268E0,2.511517525E0,6.519411087E0,5.791574001E0
2.285958065E0,4.280832767E0,6.409277916E0,5.439626217E0
2.287245537E0,4.467580318E0,7.333439827E0,5.128379822E0
2.290008142E0,2.401384354E0,8.623914719E0,4.821922302E0
2.291195229E0,-8.906430602E-1,9.866505623E0,4.673481941E0
2.293848575E0,-3.560178041E0,1.107078838E1,4.869806290E0
2.295324114E0,-4.412513733E0,1.191354752E1,5.140350819E0
2.298179065E0,-3.045424461E0,1.156159973E1,4.481945515E0
2.299410114E0,-6.703764945E-2,1.005085850E1,2.832340717E0
2.302281988E0,3.059789658E0,8.245630264E0,1.213860273E0
2.303789191E0,4.683058739E0,7.170634270E0,5.985504389E-1
2.305938191E0,3.936067581E0,7.381323814E0,1.256955862E0
2.307713537E0,9.959878922E-1,8.336610794E0,2.231395960E0
2.310150460E0,-2.925714493E0,9.289502144E0,2.971204281E0
2.311797883E0,-5.863399982E0,9.780313492E0,3.620033026E0
2.314162575E0,-6.390124321E0,9.521739960E0,4.376600742E0
2.315848575E0,-4.594472885E0,8.482656479E0,5.102043629E0
2.318556037E0,-1.558625340E0,7.129932880E0,5.334281445E0
2.319969575E0,1.663970232E0,6.433219910E0,4.903325081E0
2.322824834E0,4.264073372E0,6.809109688E0,3.883395195E0
2.324075460E0,6.339846134E0,8.394071579E0,2.245761156E0
2.326472691E0,6.878541470E0,9.440337181E0,2.200271368E0
2.328275268E0,6.691793919E0,9.761159897E0,2.724601507E0
2.330780460E0,5.195417881E0,9.672574997E0,3.612850428E0
2.332279921E0,2.647987127E0,9.761159897E0,4.350264549E0
2.334758652E0,-1.747767180E-1,1.041477776E1,4.671087742E0
2.336413768E0,-2.638410330E0,1.089122391E1,4.333505154E0
2.339262757E0,-4.125209332E0,1.048899746E1,3.438073635E0
2.340530614E0,-4.127603531E0,1.002931118E1,3.342305660E0
2.343365911E0,-2.822763920E0,9.631873131E0,3.986345768E0
2.344888691E0,-1.381454349E0,8.736441612E0,4.393360138E0
2.347458526E0,-7.302315235E-1,7.673416615E0,4.479551315E0
2.348620498E0,-6.081272364E-1,7.199364662E0,4.522646904E0
2.351527257E0,-8.619126081E-1,7.951143742E0,5.106832027E0
2.352757037E0,-1.709460020E0,9.141061783E0,5.726930618E0
2.355630334E0,-2.837129116E0,9.835380554E0,5.753266811E0
2.356872691E0,-3.342305660E0,9.883264542E0,5.300762653E0
2.359733834E0,-2.638410330E0,9.093177795E0,4.299986362E0
2.361105614E0,-1.034295082E0,7.872135162E0,3.014299870E0
2.363837103E0,4.596867263E-1,7.429207802E0,2.473210335E0
2.365434729E0,1.426944256E0,8.073247910E0,2.252943754E0
2.367928488E0,1.041477680E0,8.513781548E0,2.209848166E0
2.369172421E0,-7.924807668E-1,9.799467087E0,2.492363930E0
2.371996757E0,-2.887407303E0,1.127190113E1,2.774879694E0
2.373250383E0,-3.969586372E0,1.251688671E1,3.165134668E0
2.375875075E0,-2.159569979E0,1.191594219E1,3.270479441E0
2.377473229E0,1.007958889E0,9.911994934E0,3.028665066E0
2.380204257E0,3.995922565E0,7.694964409E0,3.002328873E0
2.381454498E0,5.025429249E0,5.980715752E0,3.172317266E0
2.384334603E0,3.744531393E0,5.839457989E0,4.199429989E0
2.385859998E0,1.240196466E0,7.615955830E0,5.983109951E0
2.388010152E0,-1.391031146E0,9.933543205E0,7.436390400E0
2.389684768E0,-3.402160645E0,1.045787334E1,7.168240070E0
2.392259998E0,-3.189076662E0,9.255983353E0,6.138733387E0
2.393782921E0,3.351882398E-1,8.157045364E0,6.057330132E0
2.396204652E0,5.154716492E0,7.599195957E0,6.545747280E0
2.397967421E0,7.953537941E0,6.993463039E0,6.179434776E0
2.400589729E0,8.305485725E0,6.567295074E0,4.520252705E0
2.402009845E0,7.781155586E0,7.560888767E0,3.050212860E0
2.404877411E0,7.134721279E0,9.533711433E0,2.602497339E0
2.406194921E0,5.995080948E0,1.089122391E1,2.475604534E0
2.408530268E0,4.517858505E0,1.154962921E1,2.592920542E0
2.410209768E0,3.251325846E0,1.214099693E1,2.851494312E0
2.412649114E0,2.147598982E0,1.262701988E1,2.798821688E0
2.414355998E0,9.433154464E-1,1.228464890E1,1.733402014E0
2.417093460E0,1.532289088E-1,1.111867237E1,-1.412578970E-1
2.418479921E0,1.182735682E0,1.114261436E1,1.460463107E-1
2.421316526E0,2.614468336E0,1.122641182E1,1.089361787E0
2.422603883E0,2.959233284E0,1.041956615E1,1.642422318E0
2.425420103E0,2.020706177E0,9.095572472E0,2.020706177E0
2.427035844E0,9.026140571E-1,8.501810074E0,3.332728863E0
2.429512026E0,3.806780577E-1,9.119514465E0,5.825092793E0
2.430700229E0,1.412578970E-1,9.617507935E0,7.955932140E0
2.433581064E0,-9.097966552E-2,9.109937668E0,8.667010307E0
2.434856652E0,2.944868207E-1,8.240841866E0,8.499416351E0
2.437685141E0,1.632845521E0,7.563282967E0,8.147468567E0
2.438928114E0,3.292027235E0,6.945579052E0,7.644686222E0
2.441789257E0,4.276044369E0,6.258443356E0,6.828263283E0
2.442999498E0,4.194641590E0,6.270414352E0,6.172252178E0
2.445892757E0,2.868253708E0,7.544129372E0,6.035782337E0
2.447453460E0,2.729389966E-1,9.334992409E0,6.071695328E0
2.449985064E0,-2.578555346E0,1.088164711E1,5.892130375E0
2.451218383E0,-4.137180328E0,1.193748951E1,5.590460777E0
2.454054603E0,-3.270479441E0,1.191833591E1,4.750096321E0
2.455260614E0,-6.703764945E-2,1.064222622E1,3.038241863E0
2.457918921E0,4.170699596E0,9.210494041E0,1.388636947E0
2.459398844E0,7.733271599E0,8.396465302E0,2.035071403E-1
2.462262449E0,9.057265282E0,8.374917984E0,-4.213795066E-1
2.463526960E0,7.398083210E0,8.894459724E0,-3.830722570E-1
2.466366679E0,3.541024208E0,9.493009567E0,3.687070608E-1
2.467711075E0,-2.027888775E0,1.007958889E1,2.971204281E0
2.470022883E0,-3.423708439E0,9.751583099E0,4.771644115E0
2.471733344E0,-2.925714493E0,8.686163902E0,5.722142220E0
2.474101344E0,-1.347935557E0,7.453149796E0,5.832275391E0
2.475843921E0,5.937620401E-1,6.909666061E0,5.714959621E0
2.478237460E0,2.372653961E0,7.132327080E0,5.755661011E0
2.479997844E0,3.830722809E0,7.570465565E0,5.858611584E0
2.482562921E0,4.982333660E0,7.867346764E0,5.875370979E0
2.484024344E0,5.607220173E0,8.087613106E0,5.916072369E0
2.486912602E0,5.408501625E0,8.451532364E0,6.045359135E0
2.488451421E0,4.259284973E0,9.088389397E0,6.121973515E0
2.490542383E0,2.267308950E0,9.844957352E0,5.803544998E0
2.492364652E0,-1.221042871E-1,1.034774017E1,4.800374508E0
2.494676575E0,-2.185906172E0,1.037407589E1,3.313575268E0
2.496360152E0,-3.172317266E0,1.046505547E1,2.389413357E0
2.498887306E0,-2.822763920E0,1.083136845E1,2.463633537E0
2.500656844E0,-1.745373011E0,1.077869606E1,2.774879694E0
2.503354218E0,-8.259995580E-1,9.852140427E0,2.798821688E0
2.504628383E0,-1.747767180E-1,8.611943245E0,2.899378300E0
2.507458718E0,7.206547260E-1,8.410830498E0,3.883395195E0
2.509090421E0,1.635239720E0,9.847352028E0,6.172252178E0
2.511552987E0,1.450886250E0,1.004607010E1,6.564900875E0
2.512887998E0,7.781155705E-1,9.392453194E0,6.483498096E0
2.515622795E0,1.319205165E0,7.443572998E0,6.042964935E0
2.516925114E0,2.762908697E0,6.677428722E0,5.997475147E0
2.519727064E0,3.620033026E0,6.648698330E0,5.707777023E0
2.521191498E0,2.947262287E0,7.649474621E0,5.410895824E0
2.523831102E0,7.326257229E-1,9.210494041E0,5.248090267E0
2.525135460E0,-2.138022184E0,1.051054573E1,5.255272865E0
2.527934987E0,-4.163516521E0,1.126471901E1,5.348646641E0
2.529801652E0,-4.036623955E0,1.172201157E1,5.389348030E0
2.532027910E0,-1.508347034E0,1.141794777E1,4.493916512E0
2.533514306E0,2.291250944E0,9.986215591E0,2.396595955E0
2.536097372E0,5.489904404E0,8.358158112E0,6.823474765E-1
2.537764729E0,6.698976517E0,7.412448406E0,4.213795066E-1
2.540006383E0,5.348646641E0,7.594407558E0,1.553836942E0
2.541548344E0,1.759738207E0,8.487444878E0,3.174711466E0
2.544305179E0,-2.659958124E0,9.057265282E0,4.252102375E0
2.545542537E0,-5.808333397E0,8.767566681E0,4.776432514E0
2.548409371E0,-6.244078159E0,8.070854187E0,5.420472622E0
2.549787921E0,-4.474762917E0,7.469909191E0,6.414066315E0
2.552110267E0,-2.310404539E0,6.914454460E0,6.837840080E0
2.554030729E0,-8.331822157E-1,6.677428722E0,6.167463779E0
2.556149421E0,3.303998411E-1,7.228095055E0,4.733336926E0
2.557953652E0,1.771709204E0,8.121131897E0,2.899378300E0
2.560425652E0,4.668693542E0,9.133879662E0,6.584054828E-1
2.562019229E0,6.129156113E0,9.464279175E0,-4.788403399E-3
2.564744537E0,6.143521786E0,9.852140427E0,-3.375824392E-1
2.566086498E0,4.431667328E0,1.041717148E1,-1.070208192E0
2.568956525E0,1.508347034E0,1.142513084E1,-2.027888775E0
2.570407114E0,-1.601720929E0,1.240914726E1,-2.506729126E0
2.572864460E0,-3.675099611E0,1.255279922E1,-2.039859772E0
2.574275921E0,-3.916913986E0,1.186326981E1,-3.591302633E-1
2.576751652E0,-2.841917515E0,1.093431950E1,2.128445387E0
2.578444114E0,-1.817199111E0,1.015620327E1,4.608838081E0
2.580854921E0,-1.733402014E0,9.756371498E0,6.986280441E0
2.582594691E0,-2.032677174E0,9.308655739E0,9.485827446E0
2.585373652E0,-1.290474772E0,7.989450932E0,1.168370438E1
2.586694537E0,1.388636947E0,5.717353821E0,1.279461384E1
2.589500141E0,5.157110691E0,3.787626982E0,1.275870132E1
2.591004652E0,7.735665798E0,3.311181068E0,1.179623222E1
2.593593756E0,7.354987621E0,4.967968464E0,1.063983250E1
2.594819844E0,3.943250179E0,7.601590633E0,9.153033257E0
2.597662371E0,-1.194706678E0,9.478644371E0,7.070077419E0
2.598884460E0,-5.489904404E0,1.048420906E1,5.252878666E0
2.601765717E0,-6.421248913E0,1.142752457E1,4.153939724E0
2.603087691E0,-3.646369219E0,1.253843403E1,2.975992680E0
2.605869487E0,4.788403511E-1,1.282573891E1,4.285621047E-1
2.607056037E0,3.332728863E0,1.167891598E1,-3.064578056E0
2.609973602E0,3.761290789E0,9.366117477E0,-4.805162907E0
2.611515075E0,2.885013103E0,8.616731644E0,-2.190694571E0
2.614066333E0,1.630451322E0,8.207323074E0,1.386242747E0
2.615235191E0,-3.112462163E-1,7.568071365E0,4.151545525E0
2.618135794E0,-2.557007313E0,6.804321289E0,6.253654957E0
2.619338575E0,-4.362235546E0,6.687005520E0,9.078812599E0
2.621970614E0,-5.645527840E0,7.192182064E0,1.278743172E1
2.623530037E0,-6.588842869E0,7.280767441E0,1.571075153E1
2.626311410E0,-6.251260757E0,6.351817131E0,1.609142876E1
2.627596575E0,-3.167528868E0,4.932055473E0,1.370441055E1
2.630384833E0,2.904166698E0,3.842693806E0,9.476250648E0
2.631622152E0,9.473855972E0,3.543418407E0,4.568136692E0
2.634054421E0,1.294066048E1,4.175487995E0,1.197100803E-2
2.635740921E0,1.146343803E1,6.098031521E0,-3.227383852E0
2.638099037E0,5.916072369E0,9.658209801E0,-4.898536682E0
2.639814883E0,-1.678335428E0,1.455914021E1,-5.339069843E0
2.642242844E0,-9.380482674E0,1.852393913E1,-5.212177277E0
2.643990037E0,-1.439633465E1,1.895728874E1,-5.099649429E0
2.646574652E0,-1.386482239E1,1.614649582E1,-4.230554581E0
2.648035729E0,-7.740454197E0,1.207395935E1,-2.813186884E0
2.650927910E0,1.867477298E-1,8.283937454E0,-2.023100376E0
2.652170114E0,5.798756599E0,6.165069580E0,-1.458068848E0
2.654527075E0,7.999027729E0,6.663063526E0,3.663128614E-1
2.656285921E0,8.054094315E0,8.324639320E0,3.026270866E0
2.658679344E0,4.788403511E0,8.508993149E0,6.150704384E0
2.660366729E0,1.731007814E0,8.044517517E0,8.078036308E0
2.662928652E0,-3.112462163E-1,8.846575737E0,1.021605873E1
2.664513114E0,-2.020706177E0,1.029027843E1,1.149456215E1
2.667367217E0,-4.553771496E0,9.962273598E0,1.012029076E1
2.668590190E0,-6.639121532E0,7.321468830E0,6.299144745E0
2.671471602E0,-6.184223175E0,5.425261021E0,3.612850428E0
2.673171190E0,-3.655946016E0,6.658275127E0,4.422090530E0
2.675565756E0,-1.764526606E0,9.471462250E0,6.991068840E0
2.676769614E0,-2.439691544E0,1.061110210E1,8.250418663E0
2.679635756E0,-4.836287498E0,9.387664795E0,8.183381081E0
2.680840229E0,-6.205770969E0,7.477091789E0,9.071630478E0
2.683739909E0,-4.589684486E0,6.909666061E0,1.195424938E1
2.685102883E0,-1.197100803E-2,7.110779285E0,1.397016716E1
2.687843409E0,5.398924828E0,5.784391403E0,1.109712505E1
2.689129767E0,8.793902397E0,3.864241600E0,5.099649429E0
2.691947102E0,9.174580574E0,4.438849926E0,1.197100878E0
2.693616421E0,4.335899353E0,9.773131371E0,2.087743998E0
2.696037717E0,1.197100878E0,1.105402946E1,2.770091295E0
2.697232229E0,-5.870582581E0,1.150892735E1,2.595314741E0
2.700106409E0,-9.866505623E0,1.019690514E1,4.668693244E-1
2.701362767E0,-7.654263020E0,1.052969933E1,-1.314416766E0
2.703976883E0,-1.924938202E0,1.272757626E1,-1.917755604E0
2.705528114E0,2.403778553E0,1.241633034E1,-3.931279182E0
2.708314217E0,4.546588898E0,9.179368973E0,-7.546523571E0
2.709501575E0,5.020640850E0,1.075954247E1,-6.421248913E0
2.712418025E0,4.086902142E0,1.521994019E1,-3.390189648E0
2.713626998E0,8.188169599E-1,1.782004356E1,-1.426944256E0
2.716058190E0,-1.927332401E0,1.536359215E1,-1.498770237E0
2.717760921E0,-4.237737060E-1,1.051054573E1,-9.361328483E-1
2.720166614E0,4.546588898E0,6.909666061E0,1.553836942E0
2.721848037E0,9.325415611E0,4.924872875E0,2.487575531E0
2.724339921E0,9.823410034E0,5.604825974E0,1.470039845E0
2.725973383E0,4.874594688E0,9.124302864E0,2.547430515E0
2.728659844E0,-2.281674147E0,1.127429581E1,5.552153587E0
2.730058883E0,-7.857769966E0,9.945513725E0,9.433155060E0
2.732962525E0,-9.442731857E0,6.375759125E0,1.285686302E1
2.734195114E0,-6.370970726E0,3.909731388E0,1.537556362E1
2.736591460E0,-6.368576288E-1,4.752490520E0,1.712093544E1
2.738299960E0,3.981557369E0,6.907271862E0,1.649365616E1
2.740701614E0,4.230554581E0,6.342240334E0,1.194227791E1
2.742385921E0,1.098938584E0,3.268085241E0,6.629544735E0
2.744861960E0,-1.426944256E0,2.552218914E0,5.449203014E0
2.746519575E0,-2.164358377E0,6.299144745E0,8.207323074E0
2.749401986E0,-3.904942989E0,1.141315937E1,1.030943298E1
2.750595767E0,-8.094796181E0,1.343865395E1,7.982268333E0
2.753505755E0,-1.210029507E1,1.186087513E1,1.994369984E0
2.755081498E0,-9.555258751E0,1.240435886E1,2.786850691E0
2.757599563E0,-4.204218388E0,1.493981838E1,5.985504150E0
2.758909383E0,2.341529369E0,1.422155857E1,3.845088005E0
2.761669025E0,1.001733971E1,8.207323074E0,-5.655104637E0
2.762910883E0,1.863407135E1,2.145204782E0,-1.521275806E1
2.765772755E0,2.609679794E1,1.335964561E0,-1.890222168E1
2.767004498E0,2.576400375E1,6.888118267E0,-1.535162163E1
2.769876871E0,1.394861889E1,1.420719242E1,-8.880094528E0
2.771230883E0,-4.862623692E0,1.781525421E1,-6.416460514E0
2.773980871E0,-2.137782669E1,1.768596840E1,-6.696582317E0
2.775595998E0,-2.814384079E1,1.700362015E1,-4.572925091E0
2.778072486E0,-2.373372078E1,1.729331970E1,8.930372596E-1
2.779246806E0,-1.274433517E1,1.708262825E1,7.110779285E0
2.782141678E0,-2.116474390E0,1.273954678E1,9.337387085E0
2.783347652E0,4.465186119E0,3.679888010E0,7.259219646E0
2.786008152E0,9.035717010E0,-3.916913986E0,6.667851925E0
2.787587690E0,1.347456741E1,-4.529829502E0,1.030224991E1
2.790349986E0,1.515769100E1,3.232172430E-1,1.611537170E1
2.791743421E0,1.192312431E1,6.181828976E0,2.145923042E1
2.794453255E0,3.924096584E0,9.212887764E0,2.317347908E1
2.795717113E0,-4.972756863E0,9.624691010E0,2.069308472E1
2.798109306E0,-1.109473038E1,1.090080070E1,1.848802567E1
2.799808690E0,-1.243308926E1,1.304600525E1,1.658702850E1
2.802200575E0,-4.007893562E0,1.020169353E1,6.718130112E0
2.803889152E0,6.849811077E0,4.587290287E0,-4.704606533E0
2.806303075E0,1.734359741E1,1.376665950E0,-1.507868195E1
2.808058498E0,2.049676132E1,3.770867586E0,-2.030522537E1
2.810734306E0,1.234689808E1,1.100614548E1,-1.892855835E1
2.812108575E0,-3.500322819E0,1.792059898E1,-1.478898430E1
2.814997370E0,-1.905066299E1,1.997482491E1,-1.260307789E1
2.816214267E0,-2.745909882E1,1.913685417E1,-1.019690514E1
2.818650921E0,-2.604412651E1,1.882321358E1,-5.389348030E0
2.820343767E0,-1.568920326E1,1.896686554E1,5.770025849E-1
2.822906498E0,-2.765302896E0,1.527021885E1,3.541024208E0
2.824438652E0,7.682993412E0,5.257667065E0,1.388636947E0
2.826910883E0,1.604833412E1,-3.943250179E0,-4.094084799E-1
2.828570806E0,2.291729927E1,-5.334281445E0,2.882618904E0
2.831437178E0,2.449028969E1,6.775590777E-1,1.074996567E1
2.832648767E0,1.670195198E1,8.367734909E0,1.973301125E1
2.835541293E0,2.394201756E0,1.106360626E1,2.271618652E1
2.837246690E0,-1.441309452E1,1.122401714E1,1.980723000E1
2.839633293E0,-1.730050087E1,1.271081638E1,2.062365341E1
2.840810460E0,-1.863646698E1,1.469321537E1,2.217509651E1
2.843701640E0,-1.330457878E1,1.082179165E1,1.749921989E1
2.844930537E0,-1.939303398E0,2.791639090E0,6.394912720E0
2.847804370E0,1.169806957E1,-2.379836559E0,-5.200206280E0
2.849053152E0,2.029085922E1,2.549824715E0,-1.332852077E1
2.851907370E0,1.184411621E1,1.020408726E1,-1.147062016E1
2.853307921E0,-2.870647907E0,1.520557499E1,-9.327810287E0
2.856010563E0,-1.603396797E1,1.665885544E1,-9.145850182E0
2.857582652E0,-2.247437096E1,1.805228043E1,-8.034940720E0
2.860100524E0,-2.093250465E1,2.032437897E1,-5.688623428E0
2.861278036E0,-1.398213768E1,2.107136917E1,-2.849100113E0
2.864168716E0,-5.142745018E0,1.537556362E1,-2.262520552E0
2.865468036E0,3.895366192E0,5.561730385E0,-4.343081951E0
2.868052767E0,1.117613316E1,-1.288080573E0,-4.941632271E0
2.869588883E0,1.395101357E1,-1.139639974E0,-5.770025849E-1
2.872376063E0,1.188721180E1,4.321534157E0,7.984662533E0
2.873625729E0,6.361393929E0,9.627084732E0,1.595017147E1
2.876506063E0,-9.959878922E-1,1.178904915E1,2.008735275E1
2.878042229E0,-8.667010307E0,9.756371498E0,2.010171700E1
2.880102075E0,-1.280179691E1,6.174646378E0,1.852633286E1
2.881805998E0,-9.303867340E0,4.865017891E0,1.764287186E1
2.884158152E0,4.740519226E-1,4.733336926E0,1.429817295E1
2.885860690E0,1.029027843E1,4.414907932E0,6.083666325E0
2.888262036E0,1.301009178E1,4.750096321E0,-3.770867586E0
2.890055960E0,7.603984833E0,6.133944988E0,-9.593565941E0
2.892602460E0,-1.845929503E0,8.477868080E0,-9.627084732E0
2.894045306E0,-1.048899746E1,1.257434750E1,-5.643133640E0
2.896942870E0,-1.639070511E1,1.718318558E1,-1.721431017E0
2.898163613E0,-1.894292450E1,1.949358940E1,-1.661576033E0
2.900594036E0,-1.517684460E1,1.768596840E1,-3.931279182E0
2.902317229E0,-6.801927090E0,1.270363426E1,-3.744531393E0
2.904751344E0,4.108449936E0,7.235277653E0,-2.300827742E0
2.906675113E0,1.300769806E1,2.801215887E0,-1.522712231E0
2.908902229E0,1.685996819E1,2.123656988E0,2.633621916E-2
2.910601421E0,1.556231117E1,5.082890034E0,4.048594952E0
2.913381370E0,1.088643551E1,9.469067574E0,8.920795441E0
2.914841806E0,3.545812607E0,1.246181965E1,1.262941360E1
2.917484716E0,-4.941632271E0,1.074996567E1,1.300530338E1
2.919055844E0,-9.057265282E0,6.222530365E0,1.058237171E1
2.921578678E0,-5.109226227E0,4.563348293E0,8.394071579E0
2.922767036E0,3.399766445E0,7.098807812E0,5.767632008E0
2.925646985E0,7.931990147E0,9.287108421E0,-2.801215947E-1
2.926838229E0,3.651157618E0,8.118738174E0,-7.338228226E0
2.929750024E0,-4.960785866E0,5.741295815E0,-1.007480049E1
2.931140306E0,-1.157117653E1,7.398083210E0,-5.748478413E0
2.933853024E0,-1.512896061E1,1.379539013E1,2.621650934E0
2.935109190E0,-1.776737022E1,1.866040802E1,6.947973251E0
2.937956293E0,-1.846887207E1,1.756865120E1,4.812345505E0
2.939524498E0,-8.157045364E0,9.040505409E0,6.368576288E-1
2.942049870E0,-1.826775908E0,7.019799232E0,1.553836942E0
2.943258998E0,1.052969933E1,5.054159641E0,4.874594688E0
2.946118832E0,1.768117905E1,4.299986362E0,6.052541733E0
2.947308652E0,1.786553383E1,4.477157116E0,4.587290287E0
2.949951613E0,1.024239445E1,8.245630264E0,4.522646904E0
2.951429998E0,3.615244627E0,1.176031876E1,7.472303391E0
2.954324831E0,-3.967192173E0,1.193509579E1,9.962273598E0
2.955680729E0,-8.949525833E0,8.786720276E0,9.765948296E0
2.958427639E0,-7.489062786E0,6.416460514E0,6.655880928E0
2.959655921E0,-1.240196466E0,7.659051418E0,1.659181833E0
2.962081806E0,3.078943491E0,9.825803757E0,-5.061342239E0
2.963774306E0,1.156399369E0,9.979032516E0,-1.071405220E1
2.966141036E0,-4.338293552E0,8.772355080E0,-1.197579670E1
2.967822536E0,-8.501810074E0,1.012029076E1,-7.982268333E0
2.970222344E0,-1.116416264E1,1.429817295E1,-1.845929503E0
2.971931883E0,-1.444661331E1,1.722149277E1,1.113303781E0
2.974572113E0,-1.637394524E1,1.593101788E1,5.410895944E-1
2.976025344E0,-1.210029507E1,1.182975101E1,5.099649429E-1
2.978912293E0,-1.659181833E0,8.920795441E0,4.053383350E0
2.980182306E0,8.123526573E0,6.502651691E0,7.237671852E0
2.982517767E0,1.242590714E1,4.589684486E0,7.668628216E0
2.984249536E0,1.255279922E1,5.623979568E0,7.984662533E0
2.986695575E0,1.108754826E1,9.423578262E0,9.782708168E0
2.988398998E0,7.759607792E0,1.274194145E1,1.209550667E1
2.990828844E0,1.960851192E0,1.059434223E1,1.224155331E1
2.992474152E0,-1.601720929E0,4.654327869E0,1.022084713E1
2.995349447E0,6.943184733E-1,2.396595955E0,9.275136948E0
2.996530267E0,7.029376030E0,7.405265808E0,5.281609058E0
2.999451370E0,3.849876404E0,8.722076416E0,-3.270479441E0
3.001152921E0,-4.802768707E0,7.498639584E0,-1.154962921E1
3.003543793E0,-1.286165142E1,8.121131897E0,-1.348653793E1
3.004749883E0,-1.735556793E1,1.289756489E1,-8.935160637E0
3.007611485E0,-1.982877922E1,1.849041939E1,-3.426102638E0
3.008873459E0,-2.209369278E1,1.943134117E1,-2.408566952E0
3.011714408E0,-2.054224968E1,1.461660099E1,-4.800374508E0
3.012942575E0,-1.153765774E1,1.003649330E1,-4.532223701E0
3.015816524E0,1.022324085E0,8.844181061E0,3.208230138E-1
3.017105998E0,1.016099167E1,7.721300602E0,3.830722809E0
3.019919447E0,1.267729759E1,5.985504150E0,4.443638325E0
3.021491536E0,1.168849277E1,6.837840080E0,6.035782337E0
3.024012216E0,9.660603523E0,1.060631371E1,1.056800652E1
3.025326152E0,6.363788128E0,1.078827286E1,1.372356415E1
3.028080100E0,3.490746021E0,5.116408825E0,1.301727486E1
3.029305459E0,4.690241337E0,4.668693244E-1,1.195664310E1
3.032182793E0,9.524134636E0,1.735796213E0,1.142991924E1
3.033471306E0,1.137006378E1,6.289567947E0,7.745242596E0
3.036286023E0,4.967968464E0,8.501810074E0,-5.339069963E-1
3.037521421E0,-6.483498096E0,8.068459511E0,-8.245630264E0
3.040388793E0,-1.587355709E1,9.002198219E0,-1.009156036E1
3.041643690E0,-2.050873184E1,1.383609200E1,-5.631162167E0
3.044054075E0,-2.264196587E1,1.915361404E1,-5.482721925E-1
3.045789267E0,-2.396356392E1,1.878490639E1,-1.213860273E0
3.048111613E0,-1.551921558E1,1.035013390E1,-7.189787865E0
3.049857767E0,-2.370259762E0,7.888894558E0,-5.413290024E0
3.052271075E0,9.361329079E0,7.402871609E0,-1.256955862E0
3.054013421E0,1.430056667E1,6.476315498E0,1.242590666E0
3.056744306E0,1.314177322E1,6.794744492E0,3.380612850E0
3.058249806E0,9.588777542E0,1.033816338E1,7.613561630E0
3.060928908E0,5.020640850E0,1.267250919E1,1.196382618E1
3.062184229E0,8.451532125E-1,8.664615631E0,1.265335560E1
3.064590075E0,1.156399369E0,2.269703150E0,1.123359394E1
3.066391806E0,6.955155849E0,1.608903527E0,1.147780323E1
3.068746306E0,1.235647488E1,6.742072105E0,1.130302620E1
3.070452344E0,9.296685219E0,9.349357605E0,5.046977043E0
3.072843882E0,-1.101332784E0,6.904877663E0,-4.795586109E0
3.074579844E0,-1.094150162E1,5.664681435E0,-9.404424667E0
3.077364908E0,-1.634521484E1,1.029746151E1,-5.145139217E0
3.078617767E0,-1.921346855E1,1.762611198E1,2.535459518E0
3.081468216E0,-2.264675331E1,1.872265816E1,4.161122322E0
3.083053075E0,-1.993172836E1,1.077869606E1,-2.789244890E0
3.085560677E0,-1.504276943E1,9.751583099E0,-3.394978046E0
3.086793075E0,-1.886630893E0,1.026154804E1,-1.410184860E0
3.089628485E0,9.014169693E0,9.816226959E0,-1.604115069E-1
3.090872882E0,1.390791798E1,7.290344238E0,-1.103726983E0
3.093731408E0,1.472912884E1,9.818621635E0,1.845929503E0
3.094976382E0,1.150413895E1,1.323035812E1,5.853823185E0
3.097834946E0,5.128379822E0,9.914389610E0,5.817910194E0
3.099051729E0,1.323993564E0,3.694253206E0,3.842693806E0
3.101938485E0,4.034229755E0,3.303998232E0,4.685452938E0
3.103763382E0,8.020575523E0,8.341399193E0,5.882553577E0
3.106030292E0,4.589684486E0,1.043871975E1,1.793257117E0
3.107192267E0,-5.655104637E0,7.532158375E0,-4.505887508E0
3.110098600E0,-1.381933212E1,5.667075634E0,-6.308721542E0
3.111385036E0,-1.674025917E1,9.318233490E0,-8.188169599E-1
3.113962652E0,-1.801397324E1,1.467885017E1,5.619191170E0
3.115453921E0,-2.006819916E1,1.473870564E1,5.861005783E0
3.118306908E0,-1.845211220E1,1.006522369E1,1.434126854E0
3.119872613E0,-9.950302124E0,7.663839817E0,2.394201607E-2
3.122411139E0,9.576807022E-1,8.147468567E0,2.786850691E0
3.123790036E0,7.649474621E0,7.572859764E0,3.945644379E0
3.126065844E0,8.906430244E0,6.112396717E0,2.351106167E0
3.127844344E0,7.843404770E0,8.434772491E0,3.033453465E0
3.130153344E0,6.021417141E0,1.312022495E1,6.574477673E0
3.131902306E0,2.652775526E0,1.211466026E1,7.524975777E0
3.134312421E0,9.983820915E-1,5.307945251E0,4.922478676E0
3.136238152E0,4.972756863E0,1.398213744E0,3.555389643E0
3.138638382E0,1.176510715E1,4.932055473E0,4.534617901E0
3.140142690E0,1.253843403E1,9.837775230E0,2.461239338E0
3.142956292E0,-1.522712231E0,7.948749542E0,-7.134721279E0
3.144197536E0,-1.052730465E1,7.132327080E0,-8.099584579E0
3.146568267E0,-1.545457172E1,1.117613316E1,-2.231395960E0
3.148305190E0,-1.864843750E1,1.652717400E1,3.916913986E0
3.150750382E0,-2.181835938E1,1.624705315E1,3.397372246E0
3.152696690E0,-2.052788544E1,1.122401714E1,-1.673547029E0
3.154874767E0,-1.205001736E1,8.877699852E0,-2.964021683E0
3.156551690E0,-6.871358752E-1,9.287108421E0,9.816227108E-2
3.159395177E0,6.947973251E0,8.880094528E0,2.185906172E0
3.160602075E0,9.251194954E0,8.197746277E0,2.521094322E0
3.163497908E0,9.241618156E0,1.076433086E1,4.505887508E0
3.165062959E0,8.171410561E0,1.386242771E1,7.867346764E0
3.167590485E0,5.645527840E0,1.067335129E1,8.173804283E0
3.168867806E0,5.216965675E0,3.897760391E0,6.282385349E0
3.171658523E0,9.244012833E0,2.231395960E0,6.658275127E0
3.172894190E0,1.380257320E1,7.199364662E0,8.734047890E0
3.175761561E0,1.033576870E1,1.082179165E1,6.641515732E0
3.177317998E0,-1.422155857E0,8.650250435E0,3.040636182E-1
3.179864754E0,-1.176750088E1,7.141903877E0,-3.327940464E0
3.181384382E0,-1.678335381E1,1.041956615E1,-2.466027737E-1
3.183968138E0,-1.882560730E1,1.523430538E1,4.745307922E0
3.185965767E0,-2.053027916E1,1.259110641E1,2.300827742E0
3.188059869E0,-1.916079712E1,9.911994934E0,-3.567360640E-1
3.189248805E0,-1.205719948E1,7.651868820E0,-2.590526342E0
3.192128023E0,1.386242747E0,9.380482674E0,3.830722719E-2
3.193434459E0,5.240907669E0,9.198522568E0,4.548983276E-2
3.196095036E0,5.844246387E0,1.010831928E1,2.753331959E-1
3.197465805E0,5.980715752E0,1.409945393E1,3.086126089E0
3.200334677E0,4.955997467E0,1.522472858E1,5.322310448E0
3.201550729E0,3.569754839E0,8.932766914E0,3.303998232E0
3.204438446E0,6.126761913E0,1.833958507E0,5.602431893E-1
3.205769305E0,1.258631802E1,1.877054095E0,1.048660398E0
3.208109767E0,1.560061836E1,7.146692276E0,1.869871497E0
3.209927882E0,8.544905663E0,9.617507935E0,-1.070208192E0
3.212151767E0,-4.220977783E0,8.056488991E0,-5.468356609E0
3.213892382E0,-1.393904209E1,8.623914719E0,-4.601655483E0
3.216306305E0,-1.877772331E1,1.273954678E1,1.872265697E0
3.218115229E0,-2.196440697E1,1.535401535E1,7.170634270E0
3.220839844E0,-2.349669456E1,1.201889229E1,6.138733387E0
3.222182767E0,-1.940500450E1,7.462726593E0,2.650381327E0
3.224981138E0,-1.009634876E1,7.103596210E0,3.031059265E0
3.226215229E0,-1.110909581E0,7.977479935E0,4.750096321E0
3.228610305E0,3.591302633E0,7.311892033E0,4.165910721E0
3.230323844E0,4.853046894E0,7.615955830E0,3.426102638E0
3.232774882E0,4.891354084E0,1.168849277E1,5.889736176E0
3.234450998E0,3.402160645E0,1.410424232E1,8.662221909E0
3.236940729E0,1.999158382E0,5.832275391E0,4.800374508E0
3.238586152E0,6.505045891E0,1.568202138E0,2.106897593E0
3.241419600E0,1.282573891E1,4.752490520E0,2.401384354E0
3.242699152E0,1.277785492E1,9.780313492E0,1.295263171E0
3.245522907E0,4.187458992E0,9.938331604E0,-3.991134167E0
3.247061613E0,-5.973533154E0,8.609549522E0,-8.513781548E0
3.249614369E0,-1.237562847E1,1.084094524E1,-6.842628479E0
3.250875075E0,-1.606030464E1,1.534204483E1,-1.580173135E0
3.253683446E0,-1.991736412E1,1.552879238E1,4.094084799E-1
3.254990036E0,-2.089180374E1,1.045787334E1,-2.715024710E0
3.257787176E0,-1.595256615E1,7.534552574E0,-4.537012100E0
3.259099152E0,-8.178592682E0,8.638279915E0,-2.178723574E0
3.261890561E0,-2.466027737E0,9.421183586E0,-3.447650373E-1
3.263195959E0,-1.101332754E-1,9.320627213E0,-4.668693244E-1
3.265993600E0,8.882488012E-1,1.164060879E1,1.010353088E0
3.267572536E0,1.675941229E0,1.478658962E1,4.556165695E0
3.270084253E0,2.219424963E0,1.233732128E1,5.657498837E0
3.271287998E0,4.936843872E0,4.891354084E0,3.706224203E0
3.274152946E0,1.154962921E1,6.464344859E-1,2.803610086E0
3.275899036E0,1.756625748E1,4.661510944E0,5.248090267E0
3.278096536E0,1.495657825E1,1.038365269E1,6.121973515E0
3.279498267E0,3.620033026E0,9.923966408E0,1.412579060E0
3.282359446E0,-8.066065788E0,8.956708908E0,-1.742978811E0
3.283627152E0,-1.503558636E1,1.252167511E1,2.403778553E0
3.286462869E0,-1.921107483E1,1.613691902E1,8.480262756E0
3.287718882E0,-2.017593765E1,1.155920601E1,5.805939198E0
3.290136805E0,-1.600523758E1,6.775590897E0,1.534683347E0
3.291908036E0,-8.003816605E0,6.730101109E0,1.376665950E0
3.294195344E0,-2.051830769E0,8.485051155E0,3.409343243E0
3.295922613E0,-6.560112834E-1,9.191340446E0,3.773261786E0
3.298418882E0,-1.419761658E0,1.160948372E1,4.752490520E0
3.300131613E0,-1.750161409E0,1.603636360E1,7.639897823E0
3.302745382E0,-1.429338455E0,1.498530865E1,7.388506413E0
3.304314152E0,1.283292055E0,7.335834026E0,3.011905670E0
3.306939907E0,8.657433510E0,1.182735682E0,-3.303998411E-1
3.308196228E0,1.787271500E1,2.147598982E0,-6.775590777E-1
3.310584382E0,1.957978058E1,7.953537941E0,-3.950432837E-1
3.312310728E0,9.610325813E0,1.008437729E1,-3.670311213E0
3.314715305E0,-3.667917013E0,8.564059258E0,-8.935160637E0
3.316393921E0,-1.260786629E1,1.114500904E1,-7.943961143E0
3.318956690E0,-1.692700577E1,1.620156288E1,-2.221819162E0
3.320544844E0,-1.889982796E1,1.570835781E1,-1.034295082E0
3.323375215E0,-1.814565468E1,1.025915432E1,-4.469974518E0
3.324847152E0,-1.298614979E1,6.399701118E0,-6.866570473E0
3.327477984E0,-5.920860767E0,6.495469093E0,-5.717353821E0
3.329146305E0,-3.122039080E0,8.863334656E0,-1.419761658E0
3.331570176E0,-3.974374771E0,9.488221169E0,-5.913678408E-1
3.332747228E0,-5.540182590E0,1.245703125E1,1.568202138E0
3.335638368E0,-6.538564682E0,1.567004967E1,6.998251438E0
3.336854536E0,-4.223371983E0,9.078812599E0,6.193799973E0
3.339741561E0,3.708618402E0,1.422155857E0,4.326322556E0
3.341119344E0,1.502122116E1,-1.197100878E-1,4.510675907E0
3.343844676E0,2.076491165E1,4.565742493E0,5.990292549E0
3.345143728E0,1.530373764E1,8.942343712E0,5.702988625E0
3.347947522E0,3.390189648E0,8.836998940E0,2.279279947E0
3.349520959E0,-5.920860767E0,9.449913979E0,1.340752959E0
3.352038638E0,-1.090558910E1,1.298614979E1,5.176264286E0
3.353267613E0,-1.430774975E1,1.345301914E1,7.457938194E0
3.356106022E0,-1.536598682E1,9.572018623E0,5.032611847E0
3.357550113E0,-1.226310158E1,6.938396454E0,1.754949808E0
3.360118305E0,-7.999027729E0,7.754819393E0,5.434837937E-1
3.361472728E0,-7.436390400E0,9.883264542E0,8.858546019E-1
3.364310138E0,-9.674968719E0,1.165736771E1,1.187524080E0
3.365551036E0,-1.098220348E1,1.511698914E1,2.892195702E0
3.368439676E0,-1.078587818E1,1.864125443E1,6.572083473E0
3.369754459E0,-8.128314972E0,1.485602188E1,6.323086739E0
3.372101882E0,9.576806426E-2,5.949591160E0,2.063801765E0
3.373787421E0,1.310585976E1,-5.027823523E-2,-1.213860273E0
3.376185113E0,2.412158203E1,8.164227605E-1,-2.252943754E0
3.377937575E0,2.429157066E1,6.210559368E0,-1.910573006E0
3.380313767E0,1.315613842E1,1.021605873E1,-2.655169725E0
3.382033998E0,-6.605602264E0,1.269884586E1,-4.101267338E0
3.384618498E0,-1.492305946E1,1.661815453E1,3.854664862E-1
3.386149421E0,-1.965639687E1,1.679293060E1,3.701435804E0
3.388981061E0,-1.883518410E1,1.215536213E1,2.410961151E0
3.390214959E0,-1.221521664E1,9.090784073E0,8.259995580E-1
3.392602805E0,-4.632780075E0,8.039729118E0,-7.422025502E-2
3.394325421E0,-1.393425345E0,7.687781811E0,-6.129156351E-1
3.396714305E0,-2.269703150E0,8.310274124E0,-1.149216816E-1
3.398392882E0,-3.876212597E0,1.154962921E1,2.760514498E0
3.400878959E0,-5.798756599E0,1.519599819E1,7.924807549E0
3.402528805E0,-6.809109688E0,1.158554173E1,9.301473618E0
3.405416022E0,-2.221819162E0,2.808398485E0,6.438008308E0
3.406710651E0,8.288725853E0,-2.001552582E0,4.632780075E0
3.409519137E0,1.735796165E1,7.422025204E-1,5.394136429E0
3.411086728E0,1.706108093E1,6.471527100E0,4.896142483E0
3.413612099E0,7.836222172E0,8.968679428E0,2.489969730E-1
3.414925421E0,-2.592920542E0,1.039562416E1,-4.532223701E0
3.417679637E0,-9.507374763E0,1.417127991E1,-4.079719543E0
3.418889998E0,-1.378581333E1,1.653196335E1,-1.233013868E0
3.421783099E0,-1.569638634E1,1.360864258E1,-7.733271718E-1
3.422989998E0,-1.340274143E1,9.986215591E0,-1.515529633E0
3.425886945E0,-8.870517731E0,9.258378029E0,-1.158793569E0
3.427097113E0,-6.646304131E0,9.852140427E0,-8.140285611E-1
3.429992022E0,-8.973467827E0,1.111867237E1,-7.182605099E-3
3.431587267E0,-9.129091263E0,1.345780754E1,2.832340717E0
3.434084368E0,-7.831433773E0,1.489911747E1,7.503427982E0
3.435234767E0,-4.900930882E0,9.150638580E0,8.195352554E0
3.438153368E0,3.150769472E0,5.578489900E-1,5.588066578E0
3.439398036E0,1.572272301E1,-2.011129379E0,4.479551315E0
3.442099690E0,2.457169151E1,2.827552319E0,4.975151062E0
3.443507382E0,2.124614525E1,8.425195694E0,3.541024208E0
3.446360753E0,9.100360870E0,9.435548782E0,-1.793257117E0
3.448185613E0,-1.996764183E0,1.016817474E1,-5.492298603E0
3.450464791E0,-8.731653214E0,1.426704788E1,-3.320757866E0
3.451710882E0,-1.385045719E1,1.654393387E1,-3.663128614E-1
3.454136113E0,-1.669716263E1,1.280419064E1,-2.837129116E0
3.455830498E0,-1.488475227E1,9.387664795E0,-6.299144745E0
3.458205998E0,-1.044350815E1,9.445125580E0,-6.586448669E0
3.459918459E0,-7.747636795E0,1.035252857E1,-5.346252441E0
3.462327882E0,-8.762778282E0,1.174116516E1,-2.322375536E0
3.464036459E0,-1.054885292E1,1.412818432E1,2.114080191E0
3.466709575E0,-1.084812832E1,1.646731949E1,6.830657482E0
3.468143228E0,-9.339780807E0,1.330697346E1,8.714894295E0
3.471008906E0,-2.494758129E0,4.783615112E0,6.672640324E0
3.472255844E0,1.063743782E1,-8.858546019E-1,5.413290024E0
3.474662767E0,2.338895607E1,1.580173075E-1,6.971915245E0
3.476430075E0,2.207214546E1,5.851428986E0,7.984662533E0
3.478793190E0,8.863334656E0,6.177040577E0,3.842693806E0
3.480479344E0,-3.924096584E0,7.970297337E0,1.278503656E0
3.482952613E0,-1.289995861E1,1.362300777E1,4.386177540E0
3.484610190E0,-1.973061562E1,1.631409073E1,8.049305916E0
3.487449522E0,-2.167231369E1,1.282334423E1,6.718130112E0
3.488724921E0,-1.713290787E1,9.373299599E0,3.658340216E0
3.491553406E0,-9.916783333E0,8.336610794E0,1.297657371E0
3.493418344E0,-5.039794445E0,8.042123795E0,-1.369483352E0
3.495646522E0,-3.612850428E0,9.030928612E0,-2.892195702E0
3.496863882E0,-3.471592426E0,1.227267838E1,-1.661576033E0
3.499715676E0,-4.129997730E0,1.509065342E1,1.539471745E0
3.500949305E0,-4.465186119E0,1.189439392E1,2.085349798E0
3.503820099E0,-6.943184882E-2,5.463568211E0,-1.963245422E-1
3.505295998E0,9.416395187E0,3.258508444E0,-1.359906554E0
3.507924406E0,1.697249603E1,6.679822922E0,-2.466027737E-1
3.509148151E0,1.558625317E1,9.569623947E0,-5.267243981E-1
3.512027637E0,7.472303391E0,8.951920509E0,-3.751713991E0
3.513608651E0,-3.576937437E0,1.176031876E1,-3.411737442E0
3.516119560E0,-6.244078159E0,1.384327412E1,-1.400607944E0
3.517277536E0,-1.141315937E1,1.476264763E1,1.335964561E0
3.520188445E0,-1.349850941E1,1.008437729E1,-3.303998411E-1
3.521406498E0,-9.919178009E0,6.423643112E0,-2.056619167E0
3.524035574E0,-4.809951305E0,6.701370716E0,-6.679822803E-1
3.525825882E0,-4.010287762E0,7.776367188E0,8.643068075E-1
3.528396175E0,-1.008677197E1,1.060391903E1,2.566584110E0
3.529673690E0,-1.311064816E1,1.490390587E1,5.480327606E0
3.532500445E0,-1.354399872E1,1.540668774E1,7.357381821E0
3.533904382E0,-9.059659004E0,7.996633530E0,4.616020679E0
3.536162959E0,3.071760893E0,2.394201756E-1,1.316810966E0
3.537845305E0,1.848802567E1,1.268926859E-1,1.685518026E0
3.540404113E0,2.628833389E1,5.298368454E0,2.525882721E0
3.542053998E0,2.082237244E1,7.309497833E0,-1.654393315E0
3.544392305E0,8.602366447E0,6.416460514E0,-8.640673637E0
3.546872560E0,-2.480392933E0,9.967061996E0,-9.217676163E0
3.548878536E0,-1.139640045E1,1.718318558E1,-2.937685490E0
3.550174805E0,-1.843056488E1,1.923980522E1,1.379060149E0
3.553045560E0,-2.076730537E1,1.399410915E1,-1.115697980E0
3.554397844E0,-1.697249603E1,9.241618156E0,-3.871424198E0
3.556777844E0,-1.007240677E1,8.279149055E0,-2.923320293E0
3.558417536E0,-4.867412090E0,8.863334656E0,-2.274491638E-1
3.560810344E0,-3.076549292E0,9.239224434E0,1.805228114E0
3.562668151E0,-3.605667830E0,1.052251625E1,3.727771997E0
3.565134613E0,-4.975151062E0,1.145386124E1,6.897695065E0
3.566680190E0,-3.926490784E0,7.508216381E0,7.733271599E0
3.569486983E0,2.851494312E0,2.370259762E0,7.038952827E0
3.570690728E0,1.727655983E1,3.689464808E0,8.971074104E0
3.573589752E0,1.818156815E1,6.229712963E0,8.030152321E0
3.575328574E0,1.011310768E1,6.069301128E0,2.810792685E0
3.577683868E0,-8.379705995E-2,7.611167431E0,-1.532289028E0
3.578997690E0,-8.173804283E0,1.294784260E1,-8.834604025E-1
3.581752098E0,-1.522472858E1,1.651520348E1,1.244984865E0
3.583027074E0,-1.951274300E1,1.387679291E1,-1.508347094E-1
3.585856060E0,-1.760456467E1,1.060152531E1,-2.698265314E0
3.587039074E0,-1.194227791E1,1.131020927E1,-2.463633537E0
3.589960021E0,-8.188169479E0,1.305079365E1,-1.340752959E0
3.591182151E0,-8.159439087E0,1.395580196E1,-1.987187415E-1
3.594063560E0,-9.021351814E0,1.556470490E1,2.758120298E0
3.595759421E0,-8.973467827E0,1.758062363E1,8.094796181E0
3.598156137E0,-6.698976517E0,1.422874069E1,1.080263805E1
3.599327267E0,9.528923035E-1,5.269638062E0,8.130708694E0
3.602224675E0,1.403241634E1,-1.309628367E0,4.757278919E0
3.603465997E0,2.500025368E1,-1.173158810E-1,4.616020679E0
3.606071805E0,2.399708366E1,5.157110691E0,6.007051945E0
3.607565997E0,1.086009884E1,6.665457726E0,3.457227230E0
3.610431829E0,-5.221754074E0,7.184999466E0,-5.267243981E-1
3.611701421E0,-1.807622337E1,1.285925770E1,1.534683347E0
3.614535406E0,-2.674083900E1,1.835395050E1,5.805939198E0
3.615816844E0,-2.923799133E1,1.673307610E1,4.570530891E0
3.618223574E0,-2.356612778E1,1.170046329E1,-4.596867263E-1
3.620022690E0,-7.762001991E0,7.836222172E0,-4.970362663E0
3.622270190E0,-8.259995580E-1,7.326257229E0,-6.248866558E0
3.623995728E0,7.685387731E-1,9.696516991E0,-5.379771233E0
3.626438921E0,-1.175553083E0,1.426225948E1,-2.044648170E0
3.628120767E0,-4.469974518E0,1.579694271E1,1.553836942E0
3.630754882E0,-5.351040840E0,9.708487511E0,1.886630893E0
3.632190151E0,3.232172430E-1,2.013523579E0,1.072602391E0
3.635082444E0,1.036689377E1,1.089361787E0,3.148375273E0
3.636341497E0,1.569878101E1,6.026205540E0,6.363788128E0
3.638717959E0,1.027591324E1,8.667010307E0,5.801150799E0
3.640396844E0,-5.913678408E-1,6.813898087E0,1.434126854E0
3.642959882E0,-8.010998726E0,7.290344238E0,6.272808313E-1
3.644523997E0,-1.026873112E1,1.157117653E1,4.891354084E0
3.647026959E0,-1.088404083E1,1.213860226E1,6.617573261E0
3.648638997E0,-8.951920509E0,7.747636795E0,2.858676910E0
3.651521752E0,-4.005499363E0,5.628767967E0,-5.937620401E-1
3.652756651E0,-3.471592367E-1,6.418854713E0,-1.168370485E0
3.655625713E0,-1.539471745E0,6.962338448E0,-1.520318031E0
3.657338882E0,-7.948749542E0,1.131978607E1,-3.303998411E-1
3.659719175E0,-9.622296333E0,1.440351772E1,8.858546019E-1
3.660877228E0,-1.176750088E1,1.798763657E1,2.094926596E0
3.663788713E0,-1.029027843E1,1.231337929E1,-1.855506301E0
3.665077690E0,-8.451532125E-1,2.794033289E0,-7.395689011E0
3.667892444E0,2.059731674E1,2.171540976E0,-7.046135426E0
3.669139536E0,2.485420799E1,8.631096840E0,-4.829104900E0
3.671996252E0,1.726458931E1,1.041238308E1,-8.042123795E0
3.673223651E0,6.260837555E0,9.119514465E0,-1.393904209E1
3.676100175E0,-2.322375536E0,1.149456215E1,-1.399410915E1
3.677713382E0,-8.157045364E0,1.592144108E1,-8.489839554E0
3.680192944E0,-1.087685871E1,1.609382439E1,-4.644751072E0
3.681401805E0,-1.020887566E1,1.310107136E1,-4.692635536E0
3.684261406E0,-8.317456245E0,1.121922874E1,-4.821922302E0
3.685510767E0,-7.489062786E0,9.897629738E0,-3.904942989E0
3.688295036E0,-7.802703381E0,8.762778282E0,-1.417367458E0
3.689605574E0,-8.394071579E0,1.072841740E1,4.441244125E0
3.692468867E0,-9.603142738E0,1.445858383E1,1.144188976E1
3.693657728E0,-1.051054573E1,1.330936718E1,1.431014347E1
3.696572521E0,-6.943184853E0,6.454767704E0,1.234450436E1
3.697787036E0,3.327940464E0,3.399766386E-1,9.902418137E0
3.700272805E0,1.555512810E1,3.830722570E-1,1.038604736E1
3.702005036E0,2.051830864E1,4.206612587E0,1.190157700E1
3.704319997E0,1.492784786E1,5.149928093E0,8.951920509E0
3.706005997E0,4.058171749E0,5.511452198E0,3.823540211E0
3.708524805E0,-6.210559368E0,1.114740276E1,3.543418407E0
3.710121421E0,-1.488235760E1,1.723825264E1,5.889736176E0
3.712752844E0,-1.950556183E1,1.604594040E1,3.797203779E0
3.714206805E0,-1.716163826E1,1.241633034E1,-1.091755986E0
3.717113636E0,-8.080430984E0,1.188721180E1,-5.240907669E0
3.718430074E0,-5.870582581E0,1.142991924E1,-7.647080421E0
3.720806690E0,-7.872135162E0,1.153526402E1,-7.776367188E0
3.722439267E0,-1.139161205E1,1.536598682E1,-3.031059265E0
3.724971497E0,-1.407551193E1,1.879208946E1,3.564966440E0
3.726617459E0,-1.282095051E1,1.439633465E1,4.740519524E0
3.729064151E0,-3.675099611E0,5.561730385E0,1.774103403E0
3.730668190E0,1.123838234E1,1.826775908E0,1.580173135E0
3.733551021E0,2.214636612E1,5.011064053E0,5.384559631E0
3.734838228E0,2.134430885E1,7.929595947E0,7.630321026E0
3.737653636E0,1.113303757E1,6.533776283E0,4.651933670E0
3.739183420E0,-7.134721279E-1,6.394912720E0,2.353500366E0
3.741747444E0,-9.928754807E0,1.112824917E1,5.872976780E0
3.742931228E0,-1.661575890E1,1.381933212E1,1.004128170E1
3.745815482E0,-1.853112030E1,1.067574501E1,9.507374763E0
3.747006190E0,-1.557428169E1,7.788338184E0,7.965508938E0
3.749918290E0,-1.106360626E1,6.907271862E0,6.773196697E0
3.751131728E0,-8.935160637E0,6.428431511E0,5.056553841E0
3.754020367E0,-8.616731644E0,7.560888767E0,4.175487995E0
3.755242074E0,-7.381323814E0,1.164300251E1,5.128379822E0
3.758123328E0,-5.204994678E0,1.350329781E1,5.288791656E0
3.759706267E0,2.686294317E0,3.203441858E0,-2.535459518E0
3.762213559E0,7.915230751E0,7.182605099E-3,-5.090072632E0
3.763383420E0,1.921825790E1,4.716577232E-1,-6.246472359E0
3.766281059E0,2.103066826E1,9.251194954E0,-5.609614372E0
3.767493344E0,1.029027843E1,9.552865028E0,-1.049378586E1
3.770177190E0,-1.644816518E0,9.581595421E0,-1.440112305E1
3.771730805E0,-1.094868469E1,1.402044487E1,-1.193748951E1
3.774486867E0,-1.668997955E1,1.877532959E1,-6.849811077E0
3.775686767E0,-1.738908768E1,1.744894218E1,-5.032611847E0
3.778589521E0,-1.245942593E1,1.275870132E1,-5.573701382E0
3.779809305E0,-4.944026470E0,9.804255486E0,-3.550601006E0
3.782235267E0,1.218648672E0,8.022970200E0,-2.609679997E-1
3.783919690E0,3.440467834E0,6.816292286E0,3.433285236E0
3.786475920E0,1.711854219E0,8.066065788E0,8.801085472E0
3.788032420E0,-2.700659513E0,1.055603504E1,1.554794598E1
3.790460113E0,-5.944802761E0,9.212887764E0,2.014720726E1
3.792145959E0,-2.837129116E0,3.442862034E0,2.037944412E1
3.794848113E0,6.809109688E0,-5.746083856E-1,1.866759109E1
3.796209113E0,1.595735455E1,1.110909581E0,1.748246002E1
3.799130790E0,1.728134727E1,4.774038315E0,1.444182491E1
3.800352997E0,1.191115379E1,5.896918774E0,6.821080685E0
3.802737844E0,5.279214859E0,7.359776020E0,-7.182605267E-1
3.804483882E0,-5.051765442E-1,1.197100830E1,-3.145981073E0
3.807007074E0,-5.951985359E0,1.566526127E1,-3.129221678E0
3.808605882E0,-8.731653214E0,1.495897198E1,-5.722142220E0
3.811060728E0,-6.624756336E0,1.389834118E1,-1.168370438E1
3.812677036E0,-5.896918774E0,1.575145340E1,-1.372116947E1
3.815568482E0,-7.694964409E0,1.749921989E1,-1.374750614E1
3.816824690E0,-9.476250648E0,1.796608925E1,-1.219127464E1
3.819671367E0,-9.780313492E0,1.852872658E1,-7.433996201E0
3.821206728E0,-8.427590370E0,1.683363152E1,-1.410184860E0
3.823763020E0,-2.473210335E0,1.025197124E1,1.005564690E0
3.824939267E0,9.478644371E0,3.533841610E0,1.194706678E0
3.827832174E0,2.159091187E1,1.580173135E0,2.638410330E0
3.829167420E0,2.508644485E1,3.339911461E0,6.275202751E0
3.831935097E0,1.870110893E1,3.969586372E0,8.585607529E0
3.833151920E0,8.453926086E0,3.320757866E0,8.911218643E0
3.836039328E0,-7.062895298E-1,5.679046631E0,1.051054573E1
3.837228305E0,-8.633491516E0,1.015141487E1,1.342907715E1
3.840143520E0,-1.427423096E1,1.048181534E1,1.259589481E1
3.841804497E0,-1.403720474E1,8.173804283E0,8.367734909E0
3.844235559E0,-9.095572472E0,8.434772491E0,5.849034786E0
3.845374151E0,-4.881777287E0,9.236829758E0,3.833117008E0
3.848304290E0,-4.122815132E0,9.006986618E0,1.067813993E0
3.849494113E0,-4.467580318E0,1.004367638E1,-9.840168953E-1
3.852157113E0,-4.446032524E0,1.376187134E1,-5.865794420E-1
3.853696651E0,-4.371812344E0,1.457590008E1,-2.035071403E-1
3.856510443E0,-1.498770237E0,8.789113998E0,-2.736572504E0
3.857745074E0,7.146692276E0,2.276885748E0,-5.169081688E0
3.860641136E0,2.019988060E1,3.435679436E0,-4.388571739E0
3.861910536E0,1.748485565E1,7.592013359E0,-4.153939724E0
3.864416651E0,8.058882713E0,8.494627953E0,-7.781155586E0
3.865989036E0,-7.709329724E-1,1.023042393E1,-1.016817474E1
3.868359382E0,-7.388506413E0,1.460223579E1,-7.192182064E0
3.870130267E0,-1.232295609E1,1.646253014E1,-3.418920040E0
3.872509767E0,-1.327584839E1,1.405156994E1,-1.867477298E0
3.874204882E0,-9.519346237E0,1.166933918E1,-5.051765442E-1
3.876846113E0,-4.663905144E0,1.040520096E1,1.525106430E0
3.878292959E0,-2.384624958E0,8.894459724E0,3.215412855E0
3.881188597E0,-2.001552582E0,7.632715225E0,4.831499100E0
3.882411651E0,-1.628057122E0,8.599972725E0,7.752425194E0
3.884800574E0,-2.434903145E0,9.483432770E0,1.144428444E1
3.886536267E0,-3.244143248E0,6.641515732E0,1.335246277E1
3.888946343E0,8.834604025E-1,1.999158382E0,1.270363426E1
3.890674690E0,9.222464561E0,4.070142806E-1,1.130063248E1
3.893124382E0,1.400607967E1,3.974374771E0,1.087446404E1
3.894770613E0,1.022324085E1,7.510610580E0,8.499416351E0
3.897631136E0,2.662352324E0,8.707711220E0,2.686294317E0
3.898831882E0,-2.499546528E0,1.140597725E1,-1.005564690E0
3.901734982E0,-4.680664539E0,1.509065342E1,-1.891419291E0
3.903279920E0,-4.273650169E0,1.397016716E1,-5.269638062E0
3.905830636E0,4.309563041E-1,1.183453941E1,-8.607154846E0
3.907006036E0,5.770026207E0,1.189439392E1,-1.032619190E1
3.909899597E0,7.295132637E0,1.164779091E1,-1.177947235E1
3.911111536E0,3.584120035E0,1.066856289E1,-1.202607536E1
3.914003059E0,-1.833958507E0,1.275630665E1,-8.145073891E0
3.915220613E0,-6.801927090E0,1.781046677E1,-8.978256583E-1
3.918106866E0,-1.077630138E1,1.788708115E1,3.227383852E0
3.919299228E0,-9.315838814E0,1.066616821E1,1.400607944E0
3.922211020E0,8.690952063E-1,4.211400986E0,-2.106897533E-1
3.923783420E0,1.439872932E1,4.716577530E0,3.102885485E0
3.926302020E0,2.033874321E1,7.805097580E0,7.951143742E0
3.927450690E0,1.645295334E1,6.739677906E0,7.876923561E0
3.930370097E0,8.633491516E0,5.346252441E0,5.937620163E0
3.931587843E0,1.165976286E0,9.066842079E0,8.386888504E0
3.934207690E0,-5.959167957E0,1.354639339E1,1.285925770E1
3.935683190E0,-1.053209305E1,1.283052731E1,1.352245140E1
3.938576789E0,-9.900024414E0,1.074996567E1,1.227028370E1
3.939848613E0,-5.987898350E0,1.013704967E1,1.112824917E1
3.942680520E0,-3.303998232E0,9.282320023E0,8.360552788E0
3.943926497E0,-4.048594952E0,8.568847656E0,5.729324818E0
3.946317382E0,-5.566518784E0,1.088643551E1,6.258443356E0
3.948064843E0,-6.777985096E0,1.544260120E1,9.804255486E0
3.950388766E0,-8.075642586E0,1.444182491E1,1.023042393E1
3.952148266E0,-3.519476354E-1,4.836287498E0,2.829946518E0
3.954544536E0,1.160948372E1,3.722983599E0,7.182605099E-3
3.956376036E0,1.900756645E1,7.110779285E0,-4.668693244E-1
3.958866728E0,1.645774269E1,8.032546997E0,-2.987963676E0
3.960306382E0,8.769960403E0,7.484274387E0,-6.940790653E0
3.963225828E0,1.328781962E0,1.111149025E1,-6.900089264E0
3.964427651E0,-5.767632008E0,1.652956772E1,-4.359841347E0
3.966844536E0,-1.177229023E1,1.691024590E1,-4.508281708E0
3.968577036E0,-1.233492756E1,1.337879944E1,-7.010222435E0
3.970973074E0,-7.599195957E0,1.215536213E1,-6.454767704E0
3.972768651E0,-2.647987127E0,1.240675354E1,-3.938461781E0
3.975276382E0,-1.532289028E0,1.141555405E1,-2.205059767E0
3.976809805E0,-3.514688015E0,1.031900978E1,-4.165911078E-1
3.979665366E0,-5.442020416E0,1.182256794E1,4.132391930E0
3.981202074E0,-6.033388138E0,1.265335560E1,9.840168953E0
3.983779328E0,-2.971204281E0,7.532158375E0,1.123120022E1
3.985390266E0,1.190157700E1,-1.058237195E0,8.971074104E0
3.987872328E0,1.714008904E1,-1.472434044E0,8.791508675E0
3.989134728E0,2.111446571E1,1.343147159E0,9.519346237E0
3.991940251E0,1.460223579E1,4.110844135E0,8.463502884E0
3.993130920E0,4.012681961E0,5.652710438E0,4.079719543E0
3.996043904E0,-4.941632271E0,1.014183807E1,1.939303398E0
3.997282382E0,-1.154723454E1,1.520318127E1,2.597708941E0
4.000147058E0,-1.271081638E1,1.355836391E1,-7.541735172E-1
4.001336536E0,-5.784391403E0,1.121922874E1,-4.276044369E0
4.004250366E0,1.790862918E0,1.037886429E1,-6.921637058E0
4.005797574E0,5.544970989E0,9.595960617E0,-9.550470352E0
4.008342481E0,5.073313236E0,9.375694275E0,-1.123598862E1
4.009513151E0,2.006340981E0,1.172919369E1,-9.842563629E0
4.012411366E0,-2.892195702E0,1.510980701E1,-5.197812080E0
4.013653382E0,-6.428431511E0,1.320881081E1,-2.600103140E0
4.016240536E0,-3.483563423E0,7.630321026E0,-3.371036053E0
4.017722574E0,5.092466831E0,5.925649166E0,-2.568978310E0
4.020619174E0,1.193509579E1,8.389283180E0,-3.351882473E-2
4.022013036E0,1.127190113E1,9.428366661E0,6.536170840E-1
4.024723366E0,6.339846134E0,7.441178799E0,-8.355764151E-1
4.026006343E0,2.671929121E0,7.113173485E0,-2.609679997E-1
4.028358036E0,-7.182604820E-2,1.035731697E1,4.491522312E0
4.030098382E0,-4.304774761E0,1.110191345E1,7.948749542E0
4.032427266E0,-6.483498096E0,7.718906403E0,6.995857239E0
4.034152689E0,-4.355052948E0,6.914454460E0,6.952761650E0
4.036583343E0,-2.099714994E0,8.808267593E0,9.097966194E0
4.038336151E0,-3.426102638E0,9.184157372E0,9.471462250E0
4.041139266E0,-6.229712963E0,9.267954826E0,8.506598473E0
4.042375882E0,-7.374141216E0,1.224155331E1,9.217676163E0
4.045267558E0,-7.316680431E0,1.478898430E1,1.070208168E1
4.046540997E0,-2.846705914E0,7.656657219E0,5.983109951E0
4.048898459E0,6.320692539E0,2.813186884E0,1.836352706E0
4.050633882E0,1.489432907E1,4.491522312E0,1.362300754E0
4.053067920E0,1.468603325E1,8.631096840E0,1.666364431E0
4.054697420E0,6.155492783E0,9.861717224E0,-1.285686255E0
4.057183843E0,-2.688688517E0,1.093192482E1,-4.678270340E0
4.058810613E0,-7.266402245E0,1.483447361E1,-4.707000732E0
4.061655266E0,-9.011775017E0,1.739866447E1,-3.806780815E0
4.062861689E0,-7.747636795E0,1.442745972E1,-5.851428986E0
4.065807596E0,-2.420537949E0,1.124077702E1,-7.841010571E0
4.067351613E0,3.117250681E0,1.173877048E1,-6.349422932E0
4.069867327E0,3.026270866E0,1.250730991E1,-3.768473387E0
4.071002959E0,-2.705447912E0,1.136048698E1,-1.972822189E0
4.073927036E0,-8.262390137E0,1.187763500E1,1.383848548E0
4.075115151E0,-1.083855152E1,1.457350540E1,7.158663273E0
4.078037866E0,-1.054406452E1,1.230859089E1,9.959878922E0
4.079239728E0,-4.865017891E0,4.029441357E0,7.718906403E0
4.082140404E0,6.933608055E0,-1.958456993E0,5.592854977E0
4.083359920E0,1.744654846E1,-2.705447972E-1,7.448361397E0
4.086243289E0,1.759020042E1,5.044582844E0,9.950302124E0
4.087823266E0,4.333505154E0,6.878541470E0,3.485957623E0
4.090334558E0,4.836287498E-1,7.582436562E0,5.793967843E-1
4.091761651E0,-4.197035789E0,1.185848141E1,-1.367089152E0
4.094402596E0,-6.454767704E0,1.500685596E1,-7.398083210E-1
4.095587420E0,-5.499481201E0,1.280179691E1,-2.437297344E0
4.098263266E0,8.810662031E-1,9.911994934E0,-5.470750809E0
4.099714113E0,2.513911724E0,1.008677197E1,-7.168240070E0
4.102609712E0,-4.884171486E-1,1.038604736E1,-8.702922821E0
4.103960843E0,-5.284003258E0,1.202368069E1,-7.879317760E0
4.106714173E0,-9.392453194E0,1.571314621E1,-3.251325846E0
4.107942497E0,-1.236365795E1,1.610340118E1,1.917755604E0
4.110375882E0,-1.129823780E1,9.605537415E0,2.968810081E0
4.112060113E0,-2.937685490E0,2.990357876E0,2.518700123E0
4.114519343E0,8.595184326E0,3.294421434E0,4.644751072E0
4.116161843E0,1.430535507E1,7.951143742E0,7.979874134E0
4.118675305E0,1.165976238E1,9.057265282E0,7.098807812E0
4.120369497E0,6.007051945E0,7.479485989E0,3.706224203E0
4.122911574E0,1.932120800E0,9.150638580E0,4.436455727E0
4.124347882E0,-1.939303398E0,1.246660805E1,8.458714485E0
4.127257058E0,-5.743690014E0,1.161666679E1,1.000297451E1
4.128498651E0,-6.373364925E0,9.124302864E0,9.102754593E0
4.130927459E0,-4.800374508E0,9.445125580E0,9.636661530E0
4.132565113E0,-5.056553841E0,1.028788471E1,9.787496567E0
4.134990766E0,-8.209717751E0,1.010831928E1,8.164227486E0
4.136682536E0,-1.123838234E1,1.157835960E1,7.704541206E0
4.139266151E0,-1.231098557E1,1.524148846E1,9.799467087E0
4.140812036E0,-1.144188976E1,1.505713463E1,1.054645824E1
4.143695788E0,-7.302315235E-1,5.901707172E0,4.180276394E0
4.145063036E0,1.204044056E1,3.404554844E0,5.578489900E-1
4.147799096E0,2.032198334E1,6.497863293E0,-2.154781520E-1
4.149380343E0,1.844732475E1,9.126696587E0,-1.946485996E0
4.151893173E0,1.042435455E1,9.828198433E0,-5.714959621E0
4.153125459E0,2.291250944E0,1.278743172E1,-7.211335659E0
4.155961673E0,-4.024652958E0,1.682405472E1,-6.579266071E0
4.157175997E0,-7.402871609E0,1.646013641E1,-7.764396191E0
4.160065404E0,-5.018246651E0,1.305558205E1,-1.042195988E1
4.161278728E0,5.530605912E-1,1.188960552E1,-1.053448772E1
4.164168596E0,3.821146011E0,1.246421432E1,-8.667010307E0
4.165368805E0,1.769315004E0,1.218888092E1,-6.749254704E0
4.168271827E0,-3.641580820E0,1.200692177E1,-3.691859007E0
4.169912112E0,-9.706093788E0,1.421437550E1,2.806004286E0
4.172363827E0,-1.469800377E1,1.489432907E1,1.011310768E1
4.173616574E0,-1.494700146E1,9.330204010E0,1.324232960E1
4.176432404E0,-6.684611320E0,1.156399369E0,1.344104862E1
4.177858382E0,7.393294811E0,-2.698265314E0,1.497812557E1
4.180278766E0,1.675941277E1,-9.026140571E-1,1.855027390E1
4.181819536E0,1.557907009E1,6.560112834E-1,1.830606651E1
4.184639019E0,9.112331390E0,7.062895298E-1,1.228225517E1
4.185837843E0,3.440467834E0,3.833117008E0,6.816292286E0
4.188742981E0,-9.552865028E-1,9.162610054E0,4.948814869E0
4.190035959E0,-3.744531393E0,1.125274754E1,3.155557871E0
4.192385420E0,-1.556231141E0,1.229422569E1,-4.237737060E-1
4.194106536E0,-1.077390760E-1,1.417127991E1,-3.023876667E0
4.196482497E0,-2.097320795E0,1.468603325E1,-6.993463039E0
4.198244728E0,-6.124367714E0,1.380975533E1,-1.096544361E1
4.200611036E0,-9.193734169E0,1.475067711E1,-1.084573364E1
4.202299651E0,-1.000776291E1,1.607467079E1,-6.696582317E0
4.204910997E0,-7.991845131E0,1.224634171E1,-3.940855980E0
4.206364536E0,-2.176329374E0,4.580107689E0,-3.869029999E0
4.209287057E0,6.050147533E0,1.268926859E-1,-2.786850691E0
4.210499420E0,1.155920601E1,3.268085241E0,1.728613615E0
4.212868420E0,1.032140350E1,8.346187592E0,5.607220173E0
4.214583843E0,4.539406300E0,9.385271072E0,4.453215122E0
4.217233536E0,-5.530605912E-1,9.208099365E0,2.624045134E0
4.218766189E0,-2.008735180E0,1.025197124E1,3.883395195E0
4.221221805E0,6.703764945E-2,9.373299599E0,4.730942726E0
4.222877305E0,4.795586109E0,6.756437302E0,3.033453465E0
4.225726865E0,8.846575737E0,6.248866558E0,9.002198577E-1
4.226903574E0,8.054094315E0,8.310274124E0,-3.974374831E-1
4.229829904E0,1.345541358E0,1.052969933E1,-9.145850539E-1
4.231349728E0,-1.132696819E1,1.309388924E1,1.422155857E0
4.233924596E0,-1.451604462E1,1.440591145E1,3.651157618E0
4.235091151E0,-1.846408272E1,1.508347034E1,8.262390137E0
4.237993942E0,-1.651999092E1,1.027591324E1,8.540117264E0
4.239226074E0,-1.651999205E-1,1.865083098E0,4.630385876E0
4.242098288E0,1.134133339E1,1.642422318E0,4.455609322E0
4.243357074E0,1.553597450E1,3.857059002E0,4.953603268E0
4.246202365E0,1.327105999E1,4.738125324E0,2.568978310E0
4.248201805E0,8.470685959E0,6.502651691E0,-8.595184088E-1
4.250306057E0,3.160346270E0,1.021845245E1,-2.068590164E0
4.251875843E0,-1.244984865E0,1.255040550E1,-2.691082716E0
4.254397403E0,-1.819593310E0,1.296460247E1,-4.141968727E0
4.255572805E0,-6.224924326E-2,1.484405041E1,-4.795586109E0
4.258466519E0,-1.675941199E-1,1.646731949E1,-5.573701382E0
4.259698959E0,-3.821146011E0,1.555752277E1,-7.311892033E0
4.262466151E0,-8.633491516E0,1.390791798E1,-7.117961884E0
4.263898766E0,-1.175313568E1,1.523191166E1,-1.256955862E0
4.266675326E0,-1.314656162E1,1.676420021E1,7.503427982E0
4.267906420E0,-1.248815632E1,1.216733265E1,1.180341434E1
4.270779134E0,-6.789956093E0,3.806780815E0,1.164539719E1
4.272065959E0,3.627215624E0,-6.631938815E-1,1.298136139E1
4.274467459E0,1.238520527E1,1.031900883E0,1.802115631E1
4.276171612E0,1.363018990E1,3.933673382E0,2.187103271E1
4.278579728E0,8.753201485E0,4.096478939E0,1.973540497E1
4.280239343E0,3.222595453E0,4.568136692E0,1.512656593E1
4.282693805E0,-3.711012602E-1,6.835445881E0,1.204044056E1
4.284411420E0,-1.216254473E0,8.140285492E0,9.354146004E0
4.287053459E0,3.141192675E0,8.470685959E0,3.550601006E0
4.288428497E0,4.632780075E0,9.445125580E0,-9.672574997E-1
4.291323596E0,1.479616642E0,1.064462090E1,-5.908889771E0
