"Time (s)","Gyroscope x (rad/s)","Gyroscope y (rad/s)","Gyroscope z (rad/s)"
7.644500000E-3,2.492718846E-1,1.858886480E-1,8.149272949E-2
1.008726900E-2,2.492718846E-1,1.858886480E-1,8.149272949E-2
1.175946200E-2,2.492718846E-1,1.858886480E-1,8.149272949E-2
1.412311500E-2,2.492718846E-1,1.858886480E-1,8.149272949E-2
1.587892300E-2,2.492718846E-1,1.858886480E-1,8.149272949E-2
1.843130800E-2,2.492718846E-1,1.858886480E-1,8.149272949E-2
2.003673100E-2,2.492718846E-1,1.858886480E-1,8.149272949E-2
2.250776900E-2,2.492718846E-1,1.858886480E-1,8.149272949E-2
2.406323100E-2,2.492718846E-1,1.858886480E-1,8.149272949E-2
2.695799600E-2,2.492718846E-1,1.858886480E-1,8.149272949E-2
2.815023100E-2,2.492718846E-1,1.858886480E-1,8.149272949E-2
3.052523100E-2,2.492718846E-1,1.858886480E-1,8.149272949E-2
3.230138500E-2,2.492718846E-1,1.858886480E-1,8.149272949E-2
3.490450000E-2,2.492718846E-1,1.858886480E-1,8.149272949E-2
3.649146200E-2,2.492718846E-1,1.858886480E-1,8.149272949E-2
3.877219200E-2,2.492718846E-1,1.858886480E-1,8.149272949E-2
4.051026900E-2,2.013349831E-1,4.127899706E-1,1.209075153E-1
4.339592000E-2,1.608549356E-1,2.854908705E-1,3.834952042E-2
4.458230800E-2,9.267801046E-2,6.125270575E-2,-7.403588295E-2
4.750353500E-2,1.384843793E-2,-1.741707325E-1,-1.432780623E-1
4.909769200E-2,-6.657902896E-2,-3.004045784E-1,-1.512675583E-1
5.159691900E-2,-1.198422536E-1,-2.609897852E-1,-9.906959534E-2
5.276311500E-2,-1.267664731E-1,-1.043959185E-1,-1.171790902E-2
5.566476600E-2,-9.640643001E-2,7.616640627E-2,7.297061384E-2
5.688238500E-2,-5.699164793E-2,2.157160491E-1,1.209075153E-1
5.976715000E-2,-3.195793182E-2,2.711097896E-1,1.107875034E-1
6.104084600E-2,-4.420847446E-2,2.024002522E-1,6.764429063E-2
6.386957300E-2,-8.468852192E-2,8.149272949E-2,-6.391586736E-3
6.506680800E-2,-1.209075153E-1,-7.510114461E-2,-7.137271762E-2
6.797207300E-2,-1.288969964E-1,-2.087918371E-1,-9.800432622E-2
6.953280800E-2,-4.101268202E-2,-2.732403278E-1,-5.273059011E-2
7.206265000E-2,9.054748341E-3,-2.418150306E-1,-2.183792181E-2
7.323565400E-2,1.246359423E-1,-1.054611802E-1,3.675162420E-2
7.612941900E-2,2.210423797E-1,8.362326026E-2,7.616640627E-2
7.733623100E-2,2.572613657E-1,2.439455539E-1,8.894958347E-2
8.000096200E-2,2.316950262E-1,3.233077526E-1,6.764429063E-2
8.144696200E-2,1.539307088E-1,2.524676621E-1,3.142530099E-2
8.433522700E-2,5.965480953E-2,6.870955974E-2,-1.970739290E-2
8.552550000E-2,-1.757686399E-2,-1.502022892E-1,-6.125270575E-2
8.843849600E-2,-9.747169912E-2,-3.392867148E-1,-6.444849819E-2
8.967746200E-2,-1.145159304E-1,-2.721750736E-1,-4.154531285E-2
9.208403800E-2,-1.075917110E-1,-8.042746782E-2,-9.054748341E-3
9.377953800E-2,-7.829693705E-2,1.443433315E-1,1.810949668E-2
9.616311500E-2,-5.858954415E-2,3.014698327E-1,3.675162420E-2
9.787823100E-2,-7.456851006E-2,3.659183383E-1,3.568635881E-2
1.002661540E-1,-1.187769845E-1,2.844256163E-1,1.331580617E-2
1.019890770E-1,-1.651159972E-1,7.616640627E-2,-1.864212751E-2
1.047171540E-1,-1.672465205E-1,-1.672465205E-1,-6.285060197E-2
1.060870000E-1,-9.960222989E-2,-3.589941263E-1,-9.747169912E-2
1.089754580E-1,1.597896591E-2,-4.223773479E-1,-8.841694891E-2
1.102146150E-1,1.491370201E-1,-3.004045784E-1,-3.355583176E-2
1.125831540E-1,2.625876963E-1,-4.846953228E-2,5.060006306E-2
1.143263460E-1,3.291667104E-1,2.364887148E-1,1.219727769E-1
1.167020000E-1,3.382214606E-1,4.330300093E-1,1.438107044E-1
1.184212310E-1,2.945456207E-1,4.426173866E-1,9.960222989E-2
1.208835000E-1,2.034655064E-1,2.924150825E-1,0.000000000E0
1.225458460E-1,7.829693705E-2,3.089267015E-2,-9.321063757E-2
1.254096920E-1,-6.125270575E-2,-2.061286718E-1,-1.502022892E-1
1.266252690E-1,-1.821602285E-1,-3.190467060E-1,-1.427454352E-1
1.295157270E-1,-2.577939928E-1,-2.775014043E-1,-8.042746782E-2
1.310293080E-1,-2.636529505E-1,-4.953479767E-2,5.858954415E-2
1.336102270E-1,-2.269013226E-1,1.320927888E-1,1.209075153E-1
1.347826150E-1,-1.912149638E-1,2.391518652E-1,1.342233270E-1
1.376785350E-1,-1.736381054E-1,2.306297570E-1,1.049285457E-1
1.389022310E-1,-1.768338978E-1,1.219727769E-1,3.195793182E-2
1.417814960E-1,-1.757686287E-1,-1.544633508E-2,-5.645901710E-2
1.430224620E-1,-1.533980817E-1,-1.656486243E-1,-1.155811921E-1
1.458840350E-1,-1.059938148E-1,-2.540655732E-1,-1.118527651E-1
1.470658080E-1,-1.118527725E-2,-2.423476577E-1,-5.699164793E-2
1.499866880E-1,1.134506613E-1,-1.459412277E-1,2.024002373E-2
1.515244620E-1,2.530003190E-1,1.864212751E-2,7.936219871E-2
1.540778420E-1,3.483414650E-1,1.731054783E-1,1.081243455E-1
1.552570000E-1,3.675162494E-1,2.716424465E-1,9.427590668E-2
1.581466110E-1,3.201119602E-1,2.727077007E-1,5.113269389E-2
1.593520380E-1,2.322276533E-1,1.464738697E-1,-1.597896684E-3
1.619983460E-1,1.368864775E-1,-4.580637068E-2,-4.687163606E-2
1.634614230E-1,5.805691332E-2,-2.263686955E-1,-6.391586363E-2
1.663516880E-1,2.663161140E-3,-3.147856593E-1,-4.580637068E-2
1.675618080E-1,-3.515372798E-2,-2.535329461E-1,-1.704423130E-2
1.704542270E-1,-4.953479767E-2,-7.403588295E-2,1.065264456E-2
1.716897310E-1,-4.633900523E-2,1.257012039E-1,2.450108156E-2
1.740992310E-1,-5.592638254E-2,2.812298238E-1,2.024002373E-2
1.757826150E-1,-1.033306494E-1,3.254382908E-1,6.391586736E-3
1.781751920E-1,-1.842907518E-1,2.583266199E-1,-1.597896591E-2
1.799013850E-1,-2.673813701E-1,7.084008306E-2,-4.261057824E-2
1.822852690E-1,-2.892192900E-1,-2.561961114E-1,-8.415589482E-2
1.840486150E-1,-2.167813182E-1,-3.936152160E-1,-9.108011425E-2
1.867038460E-1,-8.948221803E-2,-3.765709996E-1,-6.551376730E-2
1.880947690E-1,6.018744037E-2,-2.189118415E-1,-7.456851192E-3
1.909957270E-1,1.917476058E-1,3.142530099E-2,6.604639441E-2
1.922049610E-1,2.753708661E-1,2.748382390E-1,1.145159304E-1
1.946383460E-1,2.993393242E-1,4.154531360E-1,1.150485575E-1
1.963394230E-1,2.679139972E-1,3.755057156E-1,6.018744037E-2
1.987481920E-1,2.087918371E-1,1.954760253E-1,-3.515372798E-2
2.004347690E-1,1.246359423E-1,-6.178534031E-2,-1.187769845E-1
2.029073850E-1,3.675162420E-2,-2.514024079E-1,-1.560612470E-1
2.045721150E-1,-4.101268202E-2,-2.934803665E-1,-1.342233270E-1
2.074321500E-1,-9.108011425E-2,-2.055960447E-1,-5.592638254E-2
2.086756540E-1,-9.800432622E-2,-4.900216311E-2,4.420847446E-2
2.115342270E-1,-7.616640627E-2,1.123853996E-1,1.166464612E-1
2.131165770E-1,-5.645901710E-2,2.114549875E-1,1.432780623E-1
2.156263800E-1,-6.178534031E-2,1.912149638E-1,1.283643693E-1
2.168319230E-1,-9.800432622E-2,9.001484513E-2,6.338323653E-2
2.196941880E-1,-1.342233270E-1,-3.408846259E-2,-3.036003746E-2
2.209049230E-1,-1.613875628E-1,-1.549959779E-1,-1.097222418E-1
2.237969570E-1,-1.571265012E-1,-2.253034264E-1,-1.326254308E-1
2.250967310E-1,-1.097222418E-1,-2.253034264E-1,-9.587380290E-2
2.278993030E-1,2.343581803E-2,-5.805691332E-2,5.858954508E-3
2.290789610E-1,1.129180342E-1,9.587380290E-2,6.285060197E-2
2.320021500E-1,1.576591432E-1,2.087918371E-1,9.321063757E-2
2.336640380E-1,1.528654546E-1,2.524676621E-1,7.350324839E-2
2.360932260E-1,1.150485575E-1,1.699096859E-1,2.450108156E-2
2.372545770E-1,7.137271762E-2,-6.391586736E-3,-2.929477207E-2
2.401605340E-1,3.462109342E-2,-1.731054783E-1,-6.338323653E-2
2.414021150E-1,-4.261057824E-3,-2.743056118E-1,-5.273059011E-2
2.440216150E-1,-2.876213938E-2,-2.439455539E-1,-1.810949668E-2
2.455561150E-1,-1.864212751E-2,-1.145159304E-1,1.225054078E-2
2.483648030E-1,1.970739290E-2,6.444849819E-2,1.864212751E-2
2.495821150E-1,6.125270575E-2,2.173139453E-1,7.456851192E-3
2.524675340E-1,6.338323653E-2,2.828277051E-1,1.065264456E-3
2.540421920E-1,9.587380104E-3,2.700445354E-1,-4.793690052E-3
2.561469610E-1,-7.030745596E-2,1.528654546E-1,-5.858954508E-3
2.578025770E-1,-1.374191195E-1,-5.006742850E-2,-1.065264456E-2
2.602053460E-1,-1.496696621E-1,-2.556634545E-1,-2.450108156E-2
2.619102690E-1,-9.161274135E-2,-3.792341352E-1,-4.101268202E-2
2.643602310E-1,2.130528912E-3,-3.547330499E-1,-4.261057824E-2
2.659683850E-1,9.747169912E-2,-1.826928556E-1,-4.261057824E-3
2.688135770E-1,1.608549356E-1,7.137271762E-2,5.379585549E-2
2.700813840E-1,1.885518134E-1,3.131877482E-1,9.534116834E-2
2.729374570E-1,1.752360016E-1,4.159857631E-1,9.640643001E-2
2.741988840E-1,1.384843737E-1,3.467435837E-1,3.994741663E-2
2.765612310E-1,6.657902896E-2,1.565938741E-1,-4.580637068E-2
2.783045380E-1,-7.616640627E-2,-1.683117896E-1,-1.251685768E-1
2.806545000E-1,-1.661812514E-1,-2.588592768E-1,-1.198422536E-1
2.823902310E-1,-2.135855258E-1,-2.205097377E-1,-6.551376730E-2
2.848801150E-1,-2.114549875E-1,-1.134506613E-1,1.864212751E-2
2.864999610E-1,-1.683117896E-1,2.343581803E-2,9.800432622E-2
2.893701110E-1,-1.193096191E-1,1.555286050E-1,1.358212233E-1
2.905703460E-1,-8.788431436E-2,2.050634027E-1,1.368864775E-1
2.934724570E-1,-7.563377917E-2,1.486043930E-1,9.800432622E-2
2.949917310E-1,-7.030745596E-2,4.314320907E-2,2.609897964E-2
2.975652260E-1,-5.592638254E-2,-8.202536404E-2,-4.740426689E-2
2.987214230E-1,-2.237055451E-2,-1.880191714E-1,-7.936219871E-2
3.016331110E-1,3.195793182E-2,-2.194444835E-1,-6.125270575E-2
3.028892690E-1,1.070590764E-1,-1.502022892E-1,-9.054748341E-3
3.057362650E-1,1.869539171E-1,-1.065264456E-2,4.846953228E-2
3.069727690E-1,2.476739883E-1,1.347559541E-1,9.108011425E-2
3.098392260E-1,2.519350350E-1,2.396845073E-1,1.006674916E-1
3.110473840E-1,2.071939409E-1,2.556634545E-1,7.243798673E-2
3.139416110E-1,1.288969964E-1,1.411475390E-1,2.609897964E-2
3.155290380E-1,9.587380104E-3,-1.171790883E-1,-4.314320907E-2
3.180321490E-1,-2.716424316E-2,-1.896170676E-1,-5.645901710E-2
3.192239230E-1,-8.522115648E-2,-2.631203234E-1,-5.326322466E-2
3.220999570E-1,-1.230380461E-1,-2.189118415E-1,-2.982740477E-2
3.233318460E-1,-1.352885813E-1,-7.137271762E-2,-5.326322280E-4
3.259763840E-1,-1.203748807E-1,1.187769845E-1,1.118527725E-2
3.274653840E-1,-1.129180342E-1,2.519350350E-1,2.183792181E-2
3.302984610E-1,-1.411475390E-1,2.737729549E-1,1.810949668E-2
3.315046540E-1,-1.778991669E-1,1.555286050E-1,2.130528912E-3
3.344075340E-1,-1.949433982E-1,-3.728425503E-2,-1.597896591E-2
3.359550770E-1,-1.672465205E-1,-2.354234457E-1,-3.355583176E-2
3.381258460E-1,-7.137271762E-2,-3.627225459E-1,-4.314320907E-2
3.397469610E-1,6.444849819E-2,-3.398193717E-1,-3.408846259E-2
3.421564610E-1,2.039981484E-1,-1.800296903E-1,1.278317347E-2
3.438740380E-1,3.078614175E-1,4.846953228E-2,8.788431436E-2
3.462588840E-1,3.584614992E-1,2.849582434E-1,1.395496428E-1
3.480360770E-1,3.637878001E-1,3.952131271E-1,1.400822699E-1
3.507255000E-1,3.259709179E-1,3.462109566E-1,7.510114461E-2
3.520614230E-1,2.471413612E-1,1.725728363E-1,-3.195793182E-2
3.549489950E-1,1.262338310E-1,-2.396845073E-2,-1.230380461E-1
3.561693840E-1,-1.704423130E-2,-1.752360016E-1,-1.539307088E-1
3.585501150E-1,-1.502022892E-1,-1.869539171E-1,-1.257012039E-1
3.602928080E-1,-2.450108230E-1,-1.017327532E-1,-5.166532472E-2
3.627018460E-1,-2.886866629E-1,1.065264456E-2,3.994741663E-2
3.644376540E-1,-2.945456207E-1,9.587380290E-2,1.145159304E-1
3.669006920E-1,-2.780340314E-1,1.459412277E-1,1.352885813E-1
3.685282690E-1,-2.668487430E-1,1.155811921E-1,1.118527651E-1
3.713535000E-1,-2.641855776E-1,4.900216311E-2,5.752427876E-2
3.725953840E-1,-2.583266199E-1,-4.687163606E-2,-5.326322280E-4
3.754870720E-1,-1.842907518E-1,-1.640507281E-1,-4.687163606E-2
3.770407690E-1,-7.776430249E-2,-1.736381054E-1,-3.675162420E-2
3.795803410E-1,5.060006306E-2,-1.139832959E-1,-3.195793368E-3
3.807551540E-1,1.794970632E-1,1.225054078E-2,4.101268202E-2
3.836486490E-1,2.721750736E-1,1.491370201E-1,7.510114461E-2
3.849660770E-1,3.147856593E-1,2.498045117E-1,8.948221803E-2
3.877526870E-1,2.982740402E-1,2.274339646E-1,8.468852192E-2
3.890708070E-1,2.460760921E-1,1.241033077E-1,5.432848632E-2
3.918557640E-1,1.805623323E-1,-4.048004746E-2,1.597896591E-2
3.930400000E-1,1.043959185E-1,-1.965412945E-1,-1.597896591E-2
3.959595340E-1,2.982740477E-2,-2.482066154E-1,-3.408846259E-2
3.975167310E-1,-3.462109342E-2,-1.635181010E-1,-4.633900523E-2
4.000522260E-1,-8.628641814E-2,-1.012001187E-2,-3.834952042E-2
4.012707690E-1,-1.150485575E-1,1.358212233E-1,-1.917476021E-2
4.041206870E-1,-1.315601617E-1,2.508697808E-1,3.728425596E-3
4.053316150E-1,-1.608549356E-1,2.609897852E-1,2.609897964E-2
4.079481920E-1,-1.981391907E-1,1.656486243E-1,4.261057824E-2
4.094631540E-1,-2.151834220E-1,-6.391586736E-3,3.355583176E-2
4.123266490E-1,-1.890844405E-1,-1.832254827E-1,0.000000000E0
4.135673460E-1,-1.097222418E-1,-3.046656251E-1,-3.728425503E-2
4.164561490E-1,7.989482954E-3,-3.057309091E-1,-4.314320907E-2
4.179101150E-1,1.331580579E-1,-1.880191714E-1,-2.663161140E-3
4.201131150E-1,2.290318608E-1,1.491370238E-2,7.350324839E-2
4.218408070E-1,2.865561247E-1,2.242381722E-1,1.454086006E-1
4.241846540E-1,3.137203753E-1,3.291667104E-1,1.464738697E-1
4.259020380E-1,2.870887816E-1,2.402171344E-1,5.912217870E-2
4.283116920E-1,2.082591951E-1,9.267801046E-2,-6.178534031E-2
4.300308460E-1,7.829693705E-2,-4.101268202E-2,-1.432780623E-1
4.326478460E-1,-8.522115648E-2,-9.374327213E-2,-1.587243974E-1
4.341358460E-1,-2.354234457E-1,-5.645901710E-2,-1.070590764E-1
4.369989950E-1,-3.398193717E-1,9.587380104E-3,-1.810949668E-2
4.382006540E-1,-3.749730885E-1,4.953479767E-2,6.817692518E-2
4.406148460E-1,-3.568635881E-1,4.527373984E-2,1.161138266E-1
4.423652690E-1,-3.051982522E-1,2.769687586E-2,1.161138266E-1
4.447780380E-1,-2.498045117E-1,-1.171790902E-2,8.468852192E-2
4.464635380E-1,-2.039981484E-1,-2.024002373E-2,3.888215125E-2
4.489152690E-1,-1.576591432E-1,-3.142530099E-2,1.331580617E-2
4.505536540E-1,-9.054747969E-2,-3.195793182E-2,1.118527725E-2
4.534350720E-1,6.391586736E-3,-3.036003746E-2,2.822950855E-2
4.546654610E-1,1.187769845E-1,-2.556634694E-2,5.166532472E-2
4.575381100E-1,2.338255495E-1,1.225054078E-2,5.645901710E-2
4.590498070E-1,3.552657068E-1,8.309062570E-2,4.740426689E-2
4.616298790E-1,3.685815036E-1,1.033306494E-1,4.474110901E-2
4.628153460E-1,3.595267534E-1,1.102548689E-1,5.006742850E-2
4.656967260E-1,3.030677438E-1,7.723167539E-2,5.912217870E-2
4.669998460E-1,2.242381722E-1,1.757686399E-2,6.178534031E-2
4.697989180E-1,1.267664731E-1,-5.805691332E-2,5.379585549E-2
4.710965000E-1,-5.006742850E-2,-9.587380290E-2,1.491370238E-2
4.739019180E-1,-1.651159972E-1,-3.675162420E-2,-3.781688958E-2
4.751345000E-1,-2.503371537E-1,2.663161233E-2,-8.415589482E-2
4.780047260E-1,-3.046656251E-1,9.747169912E-2,-1.081243455E-1
4.795865380E-1,-3.424825370E-1,1.454086006E-1,-9.001484513E-2
4.820953020E-1,-3.739078343E-1,1.794970632E-1,-3.462109342E-2
4.833074230E-1,-3.781688809E-1,1.294296384E-1,4.048004746E-2
4.861633410E-1,-3.371562064E-1,2.609897964E-2,8.681905270E-2
4.873786920E-1,-2.386192381E-1,-1.225054115E-1,8.309062570E-2
4.900571540E-1,-8.255799860E-2,-2.599245310E-1,4.633900523E-2
4.915606540E-1,9.374327213E-2,-3.291667104E-1,3.195793368E-3
4.943693410E-1,2.503371537E-1,-2.503371537E-1,-1.491370238E-2
4.956236920E-1,3.504720032E-1,-5.379585549E-2,1.757686399E-2
4.984716100E-1,4.053331316E-1,1.885518134E-1,6.711166352E-2
4.997524230E-1,4.442152679E-1,3.435477912E-1,9.054747969E-2
5.022081920E-1,4.687163532E-1,3.605920076E-1,6.444849819E-2
5.041153070E-1,4.463458061E-1,2.636529505E-1,5.858954508E-3
5.062200380E-1,3.424825370E-1,9.587380290E-2,-3.675162420E-2
5.079681150E-1,1.565938741E-1,-2.237055451E-2,-5.113269389E-2
5.103657690E-1,-6.018744037E-2,-5.805691332E-2,-3.888215125E-2
5.120645000E-1,-2.577939928E-1,-7.137271762E-2,-1.065264456E-3
5.147206150E-1,-3.898867965E-1,-7.989483327E-2,3.249056637E-2
5.162015000E-1,-4.458131790E-1,-7.510114461E-2,4.101268202E-2
5.190105330E-1,-4.404868484E-1,-3.142530099E-2,2.982740477E-2
5.204892300E-1,-4.090615511E-1,4.048004746E-2,2.663161233E-2
5.226680380E-1,-3.611246645E-1,7.989483327E-2,2.929477207E-2
5.243758070E-1,-2.812298238E-1,7.510114461E-2,3.462109342E-2
5.267607300E-1,-1.624528319E-1,5.858954508E-3,4.101268202E-2
5.284818460E-1,-2.130528912E-2,-6.870955974E-2,3.834952042E-2
5.309846150E-1,1.081243455E-1,-8.309062570E-2,3.515372798E-2
5.326266920E-1,1.954760253E-1,-5.752427876E-2,4.101268202E-2
5.354474560E-1,2.412824035E-1,3.994741663E-2,4.527373984E-2
5.369110380E-1,2.684466541E-1,1.118527651E-1,5.273059011E-2
5.395504180E-1,2.854908705E-1,1.219727769E-1,5.912217870E-2
5.411759230E-1,2.844256163E-1,7.776430249E-2,5.805691332E-2
5.436428410E-1,2.380866110E-1,5.858954508E-3,5.166532472E-2
5.448733460E-1,1.491370201E-1,-3.355583176E-2,3.142530099E-2
5.477105330E-1,2.609897964E-2,-3.089267015E-2,-4.793690052E-3
5.491293070E-1,-9.906959534E-2,-6.391586736E-3,-4.154531285E-2
5.518131870E-1,-1.885518134E-1,1.970739290E-2,-7.936219871E-2
5.533950380E-1,-2.348908186E-1,3.249056637E-2,-9.161274135E-2
5.559158020E-1,-2.487392575E-1,3.036003746E-2,-7.243798673E-2
5.572233840E-1,-2.412824035E-1,4.580637068E-2,-2.663161233E-2
5.600184560E-1,-2.087918371E-1,2.822950855E-2,2.503371425E-2
5.616550000E-1,-7.776430249E-2,-4.740426689E-2,5.699164793E-2
5.641101870E-1,-1.278317347E-2,-8.628641814E-2,5.486112088E-2
5.653847300E-1,1.230380461E-1,-1.470064968E-1,4.420847446E-2
5.681781100E-1,2.908172011E-1,-1.278317273E-1,4.793690145E-2
5.695105000E-1,3.462109566E-1,-3.195793182E-2,6.711166352E-2
5.720631150E-1,3.605920076E-1,8.468852192E-2,8.096009493E-2
5.735593840E-1,3.579288721E-1,1.603222936E-1,6.498113275E-2
5.763838410E-1,3.446130455E-1,1.683117896E-1,2.130528912E-2
5.776645380E-1,2.993393242E-1,1.267664731E-1,-2.396845073E-2
5.804858020E-1,2.002697140E-1,6.817692518E-2,-4.633900523E-2
5.818050000E-1,4.261057824E-2,3.462109342E-2,-4.474110901E-2
5.842967690E-1,-1.384843737E-1,3.941478580E-2,-3.249056637E-2
5.858725380E-1,-3.030677438E-1,1.118527725E-2,-1.597896591E-2
5.883805000E-1,-4.181163013E-1,-1.438106969E-2,-2.183792181E-2
5.899543460E-1,-4.681837261E-1,-5.166532472E-2,-4.101268202E-2
5.923923840E-1,-4.649879336E-1,-7.510114461E-2,-4.953479767E-2
5.941417300E-1,-4.277036786E-1,-5.805691332E-2,-3.781688958E-2
5.967517300E-1,-3.547330499E-1,1.544633508E-2,-8.522115648E-3
5.982220770E-1,-2.524676621E-1,6.231797114E-2,4.261057824E-2
6.010004560E-1,-1.235706806E-1,6.072007492E-2,9.054747969E-2
6.021616920E-1,2.982740477E-2,1.704423130E-2,1.171790883E-1
6.045616530E-1,1.747033745E-1,-3.408846259E-2,1.086569726E-1
6.063170770E-1,2.876214087E-1,-4.793690145E-2,7.989483327E-2
6.087235770E-1,3.403519988E-1,-3.568635881E-2,5.539375171E-2
6.103881920E-1,3.504720032E-1,4.527373984E-2,2.237055451E-2
6.128730000E-1,3.350256681E-1,8.948221803E-2,1.118527725E-2
6.146547690E-1,3.046656251E-1,8.202536404E-2,2.077265643E-2
6.173757690E-1,2.295644879E-1,3.781688958E-2,3.834952042E-2
6.185951530E-1,1.347559541E-1,-5.858954508E-3,4.793690145E-2
6.214798790E-1,6.924218964E-3,-2.503371425E-2,3.994741663E-2
6.230219230E-1,-1.374191195E-1,-1.810949668E-2,2.130528912E-3
6.255735710E-1,-2.679139972E-1,1.012001187E-2,-5.326322466E-2
6.268140770E-1,-3.627225459E-1,8.522115648E-3,-9.321063757E-2
6.296414940E-1,-4.117247164E-1,0.000000000E0,-1.059938148E-1
6.308815000E-1,-4.165183902E-1,1.970739290E-2,-9.800432622E-2
6.337446100E-1,-3.755057156E-1,2.130528912E-3,-4.953479767E-2
6.350441920E-1,-2.817624509E-1,-2.450108156E-2,5.326322280E-4
6.378475710E-1,-1.283643693E-1,-5.699164793E-2,3.408846259E-2
6.391974610E-1,6.338323653E-2,-1.012001261E-1,5.166532472E-2
6.419499560E-1,2.428802997E-1,-1.081243455E-1,6.551376730E-2
6.435204230E-1,3.755057156E-1,-6.924218684E-2,8.522115648E-2
6.460411860E-1,4.372910559E-1,2.396845073E-2,1.012001261E-1
6.472339230E-1,4.479437172E-1,1.225054115E-1,9.161274135E-2
6.501097630E-1,4.282363057E-1,1.603222936E-1,5.592638254E-2
6.514111530E-1,3.914846778E-1,1.432780623E-1,2.663161140E-3
6.539683460E-1,3.222424984E-1,9.001484513E-2,-4.633900523E-2
6.554862300E-1,2.151834220E-1,3.142530099E-2,-5.539375171E-2
6.583154940E-1,6.764429063E-2,1.331580617E-2,-3.994741663E-2
6.595139230E-1,-9.587380290E-2,3.195793182E-2,-1.704423130E-2
6.624171480E-1,-2.545982003E-1,2.450108156E-2,3.195793368E-3
6.636598070E-1,-3.818973005E-1,7.456851192E-3,-1.065264456E-3
6.661139610E-1,-4.708468914E-1,-5.805691332E-2,-3.888215125E-2
6.678358840E-1,-4.745753109E-1,-1.017327532E-1,-4.527373984E-2
6.706492630E-1,-4.362258017E-1,-8.096009493E-2,-4.420847446E-2
6.719605770E-1,-3.557983339E-1,-1.438106969E-2,-2.822950855E-2
6.742867690E-1,-2.444781959E-1,4.154531285E-2,1.331580617E-2
6.761282690E-1,-1.097222418E-1,4.474110901E-2,6.338323653E-2
6.786273070E-1,3.941478580E-2,2.609897964E-2,9.480853379E-2
6.800757690E-1,1.741707325E-1,-1.597896684E-3,1.001348570E-1
6.829581480E-1,2.753708661E-1,-2.982740477E-2,8.894958347E-2
6.842247300E-1,3.163835406E-1,-1.970739290E-2,5.912217870E-2
6.865874610E-1,3.169161677E-1,3.249056637E-2,1.544633508E-2
6.883208460E-1,2.982740402E-1,5.645901710E-2,-1.278317347E-2
6.907491150E-1,2.700445354E-1,5.699164793E-2,-1.651159860E-2
6.924298840E-1,2.322276533E-1,4.261057824E-2,-4.261057824E-3
6.948865380E-1,1.624528319E-1,1.864212751E-2,2.450108156E-2
6.965728070E-1,6.391586363E-2,1.065264456E-3,4.633900523E-2
6.993896860E-1,-5.113269389E-2,6.391586736E-3,3.781688958E-2
7.006343070E-1,-1.667138934E-1,1.171790902E-2,-6.391586736E-3
7.034919170E-1,-2.514024079E-1,7.456851192E-3,-6.285060197E-2
7.051182690E-1,-3.169161677E-1,-2.396845073E-2,-1.086569726E-1
7.075841480E-1,-3.227751255E-1,-9.587380104E-3,-1.102548689E-1
7.087709610E-1,-3.105245829E-1,-5.326322280E-4,-7.563377917E-2
7.116519940E-1,-2.636529505E-1,-9.054748341E-3,-1.384843793E-2
7.128978070E-1,-1.613875628E-1,-1.970739290E-2,2.929477207E-2
7.157546860E-1,6.178534031E-2,-8.681905270E-2,5.645901710E-2
7.170763840E-1,2.024002522E-1,-9.108011425E-2,5.326322466E-2
7.198570320E-1,3.030677438E-1,-5.113269389E-2,5.326322466E-2
7.212890000E-1,3.467435837E-1,2.769687586E-2,6.018744037E-2
7.239594940E-1,3.472762108E-1,1.161138266E-1,5.432848632E-2
7.255289230E-1,3.249056637E-1,1.533980817E-1,3.302319720E-2
7.280501860E-1,2.870887816E-1,1.416801661E-1,0.000000000E0
7.292619610E-1,2.242381722E-1,7.829693705E-2,-2.663161233E-2
7.321179170E-1,1.320927888E-1,1.118527725E-2,-3.515372798E-2
7.333632300E-1,1.118527725E-2,-1.012001187E-2,-3.994741663E-2
7.359986920E-1,-1.171790883E-1,-1.597896591E-2,-2.929477207E-2
7.374666150E-1,-2.418150306E-1,-1.118527725E-2,-1.864212751E-2
7.403229940E-1,-3.307646215E-1,2.130528912E-3,-2.183792181E-2
7.415388070E-1,-3.749730885E-1,-7.989482954E-3,-2.876213938E-2
7.444253400E-1,-3.802994192E-1,-2.130528912E-2,-3.036003746E-2
7.456631920E-1,-3.542004228E-1,-4.101268202E-2,-1.704423130E-2
7.480668460E-1,-2.892192900E-1,-2.556634694E-2,-1.597896684E-3
7.498210760E-1,-2.034655064E-1,-1.491370238E-2,1.864212751E-2
7.526155760E-1,-9.108011425E-2,-1.438106969E-2,4.740426689E-2
7.540648070E-1,2.450108156E-2,-4.261057824E-2,7.190535218E-2
7.563205000E-1,1.368864775E-1,-4.953479767E-2,7.776430249E-2
7.580195380E-1,2.290318608E-1,-2.077265643E-2,6.285060197E-2
7.606368070E-1,2.764361203E-1,1.810949668E-2,3.888215125E-2
7.620783840E-1,2.785666585E-1,6.924218684E-2,1.864212751E-2
7.649656860E-1,2.391518652E-1,1.081243455E-1,-6.924218964E-3
7.662870000E-1,2.093244642E-1,5.432848632E-2,-4.793690052E-3
7.686098460E-1,1.805623323E-1,-2.077265643E-2,3.728425596E-3
7.703700760E-1,1.326254308E-1,-9.427590668E-2,1.810949668E-2
7.727353460E-1,5.432848632E-2,-1.086569726E-1,2.503371425E-2
7.744247300E-1,-3.195793182E-2,-6.764429063E-2,1.384843793E-2
7.768869610E-1,-1.166464612E-1,9.587380104E-3,-1.704423130E-2
7.785417300E-1,-1.763012707E-1,8.362326026E-2,-5.645901710E-2
7.813986470E-1,-2.205097377E-1,1.102548689E-1,-8.255799860E-2
7.826560380E-1,-2.455434501E-1,1.043959185E-1,-8.522115648E-2
7.855007240E-1,-2.492718846E-1,5.539375171E-2,-6.125270575E-2
7.874176150E-1,-2.210423797E-1,-3.621899337E-2,-1.864212751E-2
7.895924550E-1,-1.416801661E-1,-1.438107044E-1,2.077265643E-2
7.907602690E-1,-1.864212751E-2,-2.135855258E-1,3.675162420E-2
7.936598780E-1,1.209075153E-1,-2.055960447E-1,3.675162420E-2
7.948725380E-1,2.295644879E-1,-1.107875034E-1,4.207794741E-2
7.977623780E-1,2.908172011E-1,4.207794741E-2,5.486112088E-2
7.990538070E-1,3.020024598E-1,2.055960447E-1,6.072007492E-2
8.018648010E-1,2.817624509E-1,2.721750736E-1,5.539375171E-2
8.031019230E-1,2.455434501E-1,2.162486911E-1,2.556634694E-2
8.059673400E-1,1.885518134E-1,9.906959534E-2,-2.716424316E-2
8.075767300E-1,6.711166352E-2,-1.038632840E-1,-8.149272949E-2
8.100570700E-1,1.225054078E-2,-1.395496428E-1,-8.735168725E-2
8.112340760E-1,-9.640643001E-2,-1.251685768E-1,-7.989483327E-2
8.141237240E-1,-2.359560728E-1,-4.261057824E-3,-2.609897964E-2
8.153351920E-1,-2.929477394E-1,5.699164793E-2,1.651159860E-2
8.180356150E-1,-3.051982522E-1,8.255799860E-2,3.568635881E-2
8.195363070E-1,-2.972087860E-1,5.273059011E-2,3.142530099E-2
8.223266860E-1,-2.684466541E-1,-2.663161233E-2,2.450108156E-2
8.235753840E-1,-2.119876295E-1,-8.841694891E-2,4.261057824E-3
8.264284170E-1,-1.336906850E-1,-1.113201380E-1,-1.118527725E-2
8.276973070E-1,-3.994741663E-2,-1.059938148E-1,9.587380104E-3
8.301015760E-1,5.166532472E-2,-7.936219871E-2,5.273059011E-2
8.317547300E-1,1.390170157E-1,-2.024002373E-2,8.948221803E-2
8.342195760E-1,2.109223604E-1,4.793690145E-2,9.267801046E-2
8.360814990E-1,2.561961114E-1,1.065264493E-1,6.444849819E-2
8.383783840E-1,2.503371537E-1,1.278317273E-1,1.491370238E-2
8.400195760E-1,2.066612989E-1,1.203748807E-1,-3.195793182E-2
8.427379230E-1,1.454086006E-1,5.273059011E-2,-4.900216311E-2
8.441266150E-1,8.628641814E-2,-2.876213938E-2,-3.621899337E-2
8.469636470E-1,3.941478580E-2,-1.075917110E-1,-5.326322280E-4
8.482426150E-1,-1.225054078E-2,-1.518001854E-1,4.101268202E-2
8.506335380E-1,-6.444849819E-2,-1.230380461E-1,5.912217870E-2
8.523709990E-1,-1.166464612E-1,-2.769687586E-2,3.355583176E-2
8.547631150E-1,-1.640507281E-1,6.338323653E-2,-1.065264456E-2
8.564151530E-1,-1.986718178E-1,1.235706806E-1,-5.432848632E-2
8.589199610E-1,-2.359560728E-1,1.358212233E-1,-8.575379103E-2
8.605459610E-1,-2.471413612E-1,7.510114461E-2,-6.338323653E-2
8.633933070E-1,-2.231729031E-1,-3.036003746E-2,-2.077265643E-2
8.647145380E-1,-1.496696621E-1,-1.422128081E-1,1.171790902E-2
8.674985700E-1,-1.864212751E-2,-2.295644879E-1,3.355583176E-2
8.692236920E-1,1.288969964E-1,-2.444781959E-1,4.367584363E-2
8.715899550E-1,2.599245310E-1,-1.635181010E-1,5.539375171E-2
8.727621150E-1,3.382214606E-1,-1.597896591E-2,7.669904083E-2
8.756567620E-1,3.579288721E-1,1.592570394E-1,8.575379103E-2
8.768815760E-1,3.296993375E-1,2.684466541E-1,7.084008306E-2
8.797587620E-1,2.790992856E-1,2.620550692E-1,2.343581803E-2
8.810366150E-1,2.093244642E-1,1.544633508E-1,-4.101268202E-2
8.838611090E-1,1.347559541E-1,1.065264456E-2,-9.161274135E-2
8.851435760E-1,3.675162420E-2,-1.075917110E-1,-1.012001261E-1
8.879634550E-1,-7.829693705E-2,-1.342233270E-1,-7.350324839E-2
8.895301920E-1,-1.917476058E-1,-7.563377917E-2,-2.609897964E-2
8.920538010E-1,-2.785666585E-1,-1.331580617E-2,1.917476021E-2
8.932253070E-1,-3.243730366E-1,2.237055451E-2,4.527373984E-2
8.961216850E-1,-3.387540877E-1,3.142530099E-2,3.675162420E-2
8.973415380E-1,-3.302319944E-1,5.858954508E-3,1.704423130E-2
9.000924230E-1,-3.030677438E-1,-3.621899337E-2,-2.130528912E-3
9.015577300E-1,-2.503371537E-1,-5.805691332E-2,-1.757686399E-2
9.043258780E-1,-1.640507281E-1,-6.924218684E-2,-1.118527725E-2
9.056332300E-1,-6.231797114E-2,-7.403588295E-2,1.810949668E-2
9.084297620E-1,5.006742850E-2,-6.285060197E-2,5.592638254E-2
9.096679610E-1,1.954760253E-1,1.012001187E-2,7.563377917E-2
9.120968460E-1,2.428802997E-1,6.764429063E-2,6.018744037E-2
9.137965760E-1,2.396845073E-1,1.304948926E-1,2.556634694E-2
9.161891530E-1,1.938781291E-1,1.288969964E-1,-7.456851192E-3
9.180726920E-1,1.406149119E-1,7.456851006E-2,-3.142530099E-2
9.203320760E-1,9.693906456E-2,-1.970739290E-2,-3.462109342E-2
9.220094990E-1,5.645901710E-2,-1.102548689E-1,-1.597896591E-2
9.246579990E-1,1.012001187E-2,-1.523328125E-1,1.651159860E-2
9.260786920E-1,-3.621899337E-2,-1.219727769E-1,3.781688958E-2
9.289664930E-1,-9.108011425E-2,-2.503371425E-2,2.450108156E-2
9.302120760E-1,-1.400822699E-1,6.977482140E-2,0.000000000E0
9.326396920E-1,-1.747033745E-1,1.219727769E-1,-2.822950855E-2
9.343368840E-1,-2.013349831E-1,1.235706806E-1,-4.900216311E-2
9.367784220E-1,-2.199771106E-1,8.468852192E-2,-4.793690145E-2
9.383469220E-1,-2.178465873E-1,-1.544633508E-2,-2.663161233E-2
9.408644610E-1,-1.672465205E-1,-1.214401498E-1,5.326322280E-4
9.424796530E-1,-5.326322466E-2,-2.050634027E-1,1.864212751E-2
9.453359930E-1,8.894958347E-2,-2.386192381E-1,3.515372798E-2
9.465564220E-1,2.279665917E-1,-1.880191714E-1,5.858954415E-2
9.494384160E-1,3.270362020E-1,-5.645901710E-2,8.309062570E-2
9.510194220E-1,3.483414650E-1,1.933455020E-1,9.534116834E-2
9.535315700E-1,3.312972486E-1,2.354234457E-1,9.161274135E-2
9.547429990E-1,2.812298238E-1,2.407497615E-1,4.580637068E-2
9.575997240E-1,2.114549875E-1,1.592570394E-1,-3.142530099E-2
9.588379610E-1,8.202536404E-2,-4.367584363E-2,-1.214401498E-1
9.617018010E-1,-2.982740477E-2,-1.198422536E-1,-1.209075153E-1
9.629451530E-1,-1.571265012E-1,-8.415589482E-2,-8.468852192E-2
9.658042620E-1,-2.679139972E-1,-4.793690052E-3,-2.183792181E-2
9.670754990E-1,-3.488741219E-1,5.273059011E-2,4.048004746E-2
9.699064540E-1,-3.856257200E-1,6.870955974E-2,7.137271762E-2
9.715022690E-1,-3.973436356E-1,6.178534031E-2,7.616640627E-2
9.739974540E-1,-3.866910040E-1,-6.924218964E-3,6.018744037E-2
9.751788070E-1,-3.510046303E-1,-6.285060197E-2,2.396845073E-2
9.780645310E-1,-2.854908705E-1,-9.800432622E-2,-1.331580617E-2
9.792616530E-1,-1.848233789E-1,-1.257012039E-1,-1.491370238E-2
9.819271920E-1,-5.645901710E-2,-1.283643693E-1,1.491370238E-2
9.834755760E-1,8.894958347E-2,-8.522115648E-2,5.432848632E-2
9.862686470E-1,2.279665917E-1,-9.054748341E-3,8.468852192E-2
9.876549990E-1,3.249056637E-1,5.912217870E-2,9.001484513E-2
9.903707240E-1,3.611246645E-1,1.347559541E-1,6.711166352E-2
9.916488070E-1,3.424825370E-1,1.523328125E-1,3.302319720E-2
9.941121920E-1,2.790992856E-1,9.161274135E-2,5.326322280E-4
9.957096530E-1,2.024002522E-1,-6.924218964E-3,-2.609897964E-2
9.982561920E-1,1.310275346E-1,-1.118527651E-1,-3.036003746E-2
9.998571530E-1,4.687163606E-2,-1.773665249E-1,-7.989482954E-3
1.002377230E0,-4.740426689E-2,-1.406149119E-1,1.438106969E-2
1.004024692E0,-1.347559541E-1,-3.036003746E-2,2.130528912E-2
1.006623384E0,-2.332929224E-1,9.960222989E-2,4.793690052E-3
1.008042384E0,-2.668487430E-1,1.283643693E-1,-2.343581803E-2
1.010906916E0,-3.009372056E-1,1.059938148E-1,-4.261057824E-2
1.012173999E0,-3.275688291E-1,3.195793182E-2,-3.994741663E-2
1.014624230E0,-3.302319944E-1,-6.977482140E-2,-2.343581803E-2
1.016252269E0,-2.599245310E-1,-1.645833552E-1,-1.438106969E-2
1.018724307E0,-1.235706806E-1,-2.332929224E-1,-7.456851192E-3
1.020464538E0,4.420847446E-2,-2.450108230E-1,1.544633508E-2
1.022875769E0,2.050634027E-1,-1.778991669E-1,5.219795927E-2
1.024491192E0,3.307646215E-1,-4.314320907E-2,9.054747969E-2
1.027340531E0,3.941478431E-1,1.118527651E-1,1.086569726E-1
1.028563192E0,3.952131271E-1,2.183792144E-1,9.800432622E-2
1.031447493E0,3.536677957E-1,2.199771106E-1,4.101268202E-2
1.033154730E0,2.844256163E-1,1.374191195E-1,-4.740426689E-2
1.035539685E0,1.938781291E-1,-1.065264456E-3,-1.166464612E-1
1.036737961E0,6.924218684E-2,-1.081243455E-1,-1.379517466E-1
1.039606416E0,-8.096009493E-2,-9.747169912E-2,-1.118527651E-1
1.040809961E0,-2.253034264E-1,-4.314320907E-2,-4.953479767E-2
1.043707608E0,-3.296993375E-1,7.989482954E-3,1.438106969E-2
1.044952538E0,-3.760383427E-1,2.929477207E-2,4.740426689E-2
1.047809031E0,-3.845604658E-1,1.331580617E-2,5.113269389E-2
1.049123538E0,-3.861583769E-1,-4.101268202E-2,4.314320907E-2
1.051911031E0,-3.765709996E-1,-7.190535218E-2,2.396845073E-2
1.053725845E0,-3.009372056E-1,-1.022653878E-1,-5.326322280E-4
1.056001569E0,-1.954760253E-1,-1.422128081E-1,7.456851192E-3
1.057220961E0,-1.267664731E-1,-1.555286050E-1,1.225054078E-2
1.060068954E0,1.288969964E-1,-1.427454352E-1,2.876213938E-2
1.061285384E0,2.865561247E-1,-8.202536404E-2,3.142530099E-2
1.063947384E0,3.888215125E-1,2.663161233E-2,3.089267015E-2
1.065446461E0,4.149205089E-1,1.470064968E-1,3.089267015E-2
1.068272339E0,3.733751774E-1,1.736381054E-1,3.515372798E-2
1.069545384E0,3.121224940E-1,1.161138266E-1,1.917476021E-2
1.072374916E0,2.487392575E-1,-1.810949668E-2,-1.225054078E-2
1.073620807E0,1.677791476E-1,-1.635181010E-1,-3.355583176E-2
1.076031807E0,4.740426689E-2,-2.242381722E-1,-3.675162420E-2
1.077745845E0,-9.214537591E-2,-1.688444167E-1,-3.142530099E-2
1.080191038E0,-2.125202566E-1,-5.539375171E-2,-3.834952042E-2
1.081837692E0,-2.785666585E-1,4.474110901E-2,-5.486112088E-2
1.084308845E0,-3.089267015E-1,8.575379103E-2,-6.764429063E-2
1.086019499E0,-3.233077526E-1,1.006674916E-1,-6.764429063E-2
1.088656461E0,-3.430151641E-1,6.711166352E-2,-4.740426689E-2
1.090049422E0,-3.387540877E-1,-1.810949668E-2,-1.757686399E-2
1.092915646E0,-2.705771625E-1,-1.209075153E-1,-4.793690052E-3
1.094151692E0,-1.347559541E-1,-2.263686955E-1,-1.065264456E-3
1.096518153E0,3.462109342E-2,-2.854908705E-1,9.054748341E-3
1.098182461E0,2.029328793E-1,-2.540655732E-1,3.888215125E-2
1.100636192E0,3.339604139E-1,-1.230380461E-1,8.415589482E-2
1.102289845E0,4.032025933E-1,5.379585549E-2,1.230380461E-1
1.104765922E0,4.191815555E-1,2.045307755E-1,1.086569726E-1
1.106432153E0,4.021373391E-1,1.896170676E-1,1.757686399E-2
1.109275192E0,3.515372574E-1,8.096009493E-2,-7.989483327E-2
1.110483653E0,2.348908186E-1,-4.527373984E-2,-1.363538504E-1
1.113395723E0,6.178534031E-2,-6.764429063E-2,-1.443433315E-1
1.114901653E0,-1.363538504E-1,-3.036003746E-2,-9.960222989E-2
1.117455646E0,-2.988066673E-1,-1.118527725E-2,-3.195793182E-2
1.118749692E0,-3.941478431E-1,-7.456851192E-3,9.587380104E-3
1.121523223E0,-4.314320982E-1,-2.556634694E-2,1.757686399E-2
1.122717038E0,-4.431500137E-1,-5.219795927E-2,1.491370238E-2
1.125625108E0,-4.452805519E-1,-5.858954415E-2,1.757686399E-2
1.126852884E0,-4.282363057E-1,-4.687163606E-2,2.290318534E-2
1.129727031E0,-3.648530841E-1,-5.539375171E-2,3.462109342E-2
1.130923076E0,-2.423476577E-1,-1.102548689E-1,4.900216311E-2
1.133829108E0,-7.669904083E-2,-1.635181010E-1,5.166532472E-2
1.135412884E0,1.086569726E-1,-1.603222936E-1,2.609897964E-2
1.137919877E0,2.647182047E-1,-9.108011425E-2,4.793690052E-3
1.139100230E0,3.605920076E-1,3.675162420E-2,-6.924218964E-3
1.141986608E0,3.893541694E-1,1.672465205E-1,6.391586736E-3
1.143195922E0,3.685815036E-1,1.986718178E-1,3.621899337E-2
1.145851615E0,3.382214606E-1,1.438107044E-1,4.527373984E-2
1.147346384E0,3.046656251E-1,-1.065264456E-2,4.048004746E-2
1.150190377E0,2.386192381E-1,-1.608549356E-1,2.716424316E-2
1.151462384E0,1.262338310E-1,-2.103897333E-1,1.012001187E-2
1.154292492E0,-1.012001187E-2,-1.581917703E-1,-7.989482954E-3
1.155529576E0,-1.368864775E-1,-4.207794741E-2,-2.929477207E-2
1.157986653E0,-2.524676621E-1,1.134506613E-1,-5.858954415E-2
1.159613961E0,-3.025351167E-1,1.613875628E-1,-5.699164793E-2
1.162002653E0,-3.499393761E-1,1.528654546E-1,-3.249056637E-2
1.163748884E0,-3.691141307E-1,5.965480953E-2,-5.326322280E-4
1.166177384E0,-3.243730366E-1,-6.498113275E-2,9.054748341E-3
1.167882038E0,-2.039981484E-1,-2.071939409E-1,7.456851192E-3
1.170514730E0,-4.474110901E-2,-3.110572100E-1,1.704423130E-2
1.171962615E0,1.166464612E-1,-2.828277051E-1,4.048004746E-2
1.174828454E0,2.434129268E-1,-1.363538504E-1,8.575379103E-2
1.176070576E0,3.190467060E-1,7.190535218E-2,1.278317273E-1
1.178461999E0,3.494067490E-1,2.391518652E-1,1.427454352E-1
1.180185038E0,3.510046303E-1,2.961435318E-1,1.043959185E-1
1.182693961E0,3.307646215E-1,2.327602804E-1,1.651159860E-2
1.184327615E0,2.769687474E-1,7.616640627E-2,-6.498113275E-2
1.187160107E0,1.667138934E-1,-5.699164793E-2,-1.070590764E-1
1.188401884E0,6.924218964E-3,-8.681905270E-2,-9.374327213E-2
1.191262069E0,-1.603222936E-1,-5.379585549E-2,-2.663161233E-2
1.192473499E0,-2.940129936E-1,1.597896684E-3,4.633900523E-2
1.195363684E0,-3.675162494E-1,4.101268202E-2,8.202536404E-2
1.196880115E0,-3.872236311E-1,2.929477207E-2,6.231797114E-2
1.199455415E0,-3.882888854E-1,2.663161233E-2,4.687163606E-2
1.200683538E0,-4.026699662E-1,2.237055451E-2,2.290318534E-2
1.203523492E0,-3.962783813E-1,4.048004746E-2,8.522115648E-3
1.204755384E0,-3.163835406E-1,1.544633508E-2,1.544633508E-2
1.207626300E0,-2.018676102E-1,-5.379585549E-2,5.219795927E-2
1.208862576E0,-4.900216311E-2,-1.161138266E-1,9.161274135E-2
1.211727992E0,1.187769845E-1,-1.272991002E-1,1.150485575E-1
1.212926845E0,2.631203234E-1,-7.190535218E-2,1.145159304E-1
1.215829530E0,3.605920076E-1,2.183792181E-2,1.027980223E-1
1.217463692E0,4.016047120E-1,1.166464612E-1,8.841694891E-2
1.219920338E0,3.930825889E-1,1.581917703E-1,7.350324839E-2
1.221086384E0,3.707120419E-1,1.267664731E-1,5.592638254E-2
1.223987915E0,3.323625028E-1,4.101268202E-2,3.728425503E-2
1.225186192E0,2.540655732E-1,-4.687163606E-2,2.769687586E-2
1.227892730E0,1.326254308E-1,-6.977482140E-2,2.290318534E-2
1.229374038E0,-5.858954508E-3,-3.142530099E-2,1.331580617E-2
1.232193607E0,-1.374191195E-1,3.675162420E-2,-6.391586736E-3
1.233440230E0,-2.396845073E-1,9.161274135E-2,-2.343581803E-2
1.236297492E0,-3.153182864E-1,1.027980223E-1,-2.663161233E-2
1.237582691E0,-3.685815036E-1,1.075917110E-1,-1.384843793E-2
1.239966730E0,-4.117247164E-1,7.936219871E-2,2.024002373E-2
1.241684884E0,-4.202468395E-1,1.012001187E-2,6.072007492E-2
1.244044268E0,-3.334277868E-1,-1.187769845E-1,7.829693705E-2
1.245758884E0,-1.555286050E-1,-2.237055302E-1,6.231797114E-2
1.248151384E0,2.343581803E-2,-1.699096859E-1,2.876213938E-2
1.249901422E0,1.438107044E-1,-2.556634694E-2,4.261057824E-2
1.252694422E0,2.396845073E-1,2.109223604E-1,1.209075153E-1
1.254073461E0,2.620550692E-1,3.877562582E-1,1.097222418E-1
1.256835646E0,2.545982003E-1,3.424825370E-1,9.906959534E-2
1.258066615E0,2.274339646E-1,1.677791476E-1,6.657902896E-2
1.260489615E0,1.699096859E-1,-5.326322280E-4,6.924218964E-3
1.262214576E0,7.297061384E-2,-1.054611802E-1,-3.302319720E-2
1.264670961E0,-5.752427876E-2,-1.225054115E-1,-1.757686399E-2
1.266343884E0,-1.858886480E-1,-4.580637068E-2,3.036003746E-2
1.268827768E0,-2.849582434E-1,1.043959185E-1,6.285060197E-2
1.270565038E0,-3.403519988E-1,2.024002522E-1,8.309062570E-2
1.273269223E0,-3.717772961E-1,2.135855258E-1,8.628641814E-2
1.274556461E0,-3.984089196E-1,1.826928556E-1,7.297061384E-2
1.277380646E0,-4.298342168E-1,1.241033077E-1,5.539375171E-2
1.278905499E0,-4.394215941E-1,4.261057824E-2,5.060006306E-2
1.281472261E0,-3.898867965E-1,-5.006742850E-2,5.752427876E-2
1.282763999E0,-2.743056118E-1,-1.438107044E-1,8.362326026E-2
1.285540030E0,-1.155811921E-1,-1.826928556E-1,1.262338310E-1
1.286766615E0,5.805691332E-2,-1.262338310E-1,1.656486243E-1
1.289642453E0,2.157160491E-1,-1.171790902E-2,1.922802329E-1
1.290880307E0,3.403519988E-1,1.352885813E-1,1.869539171E-1
1.293744722E0,4.111920893E-1,2.476739883E-1,1.512675583E-1
1.294963653E0,4.202468395E-1,2.870887816E-1,1.022653878E-1
1.297847030E0,3.771036267E-1,2.109223604E-1,6.764429063E-2
1.299434768E0,2.956108749E-1,0.000000000E0,3.195793182E-2
1.301905069E0,2.657834888E-1,-7.829693705E-2,2.876213938E-2
1.303093807E0,1.954760253E-1,-1.794970632E-1,4.527373984E-2
1.305971838E0,3.675162420E-2,-8.681905270E-2,8.522115648E-2
1.307215038E0,-8.948221803E-2,5.912217870E-2,9.534116834E-2
1.309871730E0,-1.992044598E-1,1.805623323E-1,7.456851006E-2
1.311365653E0,-2.934803665E-1,2.386192381E-1,3.302319720E-2
1.314176299E0,-3.802994192E-1,2.327602804E-1,-1.171790902E-2
1.315382999E0,-4.660531878E-1,1.502022892E-1,-2.769687586E-2
1.318278568E0,-5.315669775E-1,3.036003746E-2,-1.544633508E-2
1.319697038E0,-5.193164349E-1,-1.134506613E-1,1.225054078E-2
1.321958115E0,-4.005394280E-1,-2.306297570E-1,2.609897964E-2
1.323639422E0,-2.141181529E-1,-2.439455539E-1,3.888215125E-2
1.326039499E0,-1.864212751E-2,-1.464738697E-1,7.723167539E-2
1.327743922E0,1.299622655E-1,3.834952042E-2,1.299622655E-1
1.330196115E0,2.210423797E-1,2.492718846E-1,1.645833552E-1
1.331845191E0,2.689792812E-1,3.573962152E-1,1.656486243E-1
1.334571999E0,2.860234976E-1,3.296993375E-1,1.065264493E-1
1.335982230E0,2.764361203E-1,1.747033745E-1,1.864212751E-2
1.338818222E0,2.380866110E-1,-3.142530099E-2,-5.326322466E-2
1.340104845E0,1.629854590E-1,-1.597896665E-1,-7.403588295E-2
1.342443384E0,4.580637068E-2,-1.448759735E-1,-3.888215125E-2
1.344209422E0,-5.912217870E-2,-4.633900523E-2,4.207794741E-2
1.346586807E0,-1.123853996E-1,2.929477207E-2,1.235706806E-1
1.348312884E0,-1.145159304E-1,7.829693705E-2,1.592570394E-1
1.350843768E0,-1.475391239E-1,1.171790883E-1,1.315601617E-1
1.352674230E0,-2.194444835E-1,9.853696078E-2,1.054611802E-1
1.355249838E0,-2.908172011E-1,3.249056637E-2,7.350324839E-2
1.356465307E0,-3.201119602E-1,-1.597896684E-3,1.597896591E-2
1.359351068E0,-3.073287904E-1,-5.805691332E-2,-1.438106969E-2
1.360891307E0,-2.556634545E-1,-1.315601617E-1,1.118527725E-2
1.363442068E0,-1.555286050E-1,-1.400822699E-1,5.699164793E-2
1.364656038E0,-3.621899337E-2,-4.580637068E-2,8.894958347E-2
1.367508991E0,6.817692518E-2,6.231797114E-2,1.235706806E-1
1.368842768E0,1.219727769E-1,1.310275346E-1,1.539307088E-1
1.371611607E0,1.358212233E-1,1.890844405E-1,1.368864775E-1
1.372849461E0,1.299622655E-1,1.459412277E-1,9.640643001E-2
1.375713914E0,1.123853996E-1,1.225054078E-2,5.539375171E-2
1.376911307E0,9.693906456E-2,-1.315601617E-1,2.130528912E-2
1.379816145E0,8.468852192E-2,-2.178465873E-1,1.118527725E-2
1.381423076E0,7.403588295E-2,-1.960086524E-1,1.970739290E-2
1.383909645E0,6.924218684E-2,-1.097222418E-1,3.941478580E-2
1.385208191E0,6.977482140E-2,2.396845073E-2,5.006742850E-2
1.387976837E0,6.178534031E-2,1.571265012E-1,3.568635881E-2
1.389190384E0,1.917476021E-2,2.237055302E-1,2.130528912E-2
1.391890730E0,-7.084008306E-2,2.274339646E-1,7.989482954E-3
1.393374076E0,-1.800296903E-1,1.427454352E-1,3.195793368E-3
1.396181376E0,-2.625876963E-1,-2.609897964E-2,-4.793690052E-3
1.397439768E0,-2.822950780E-1,-2.130528986E-1,-1.970739290E-2
1.400309376E0,-1.784317940E-1,-3.728425503E-1,-1.917476021E-2
1.401616961E0,-6.338323653E-2,-3.067961633E-1,1.331580617E-2
1.404070307E0,4.314320907E-2,-1.177117229E-1,6.764429063E-2
1.405700153E0,1.246359423E-1,1.278317273E-1,1.139832959E-1
1.408076461E0,1.613875628E-1,3.131877482E-1,1.294296384E-1
1.409799499E0,1.677791476E-1,3.510046303E-1,9.640643001E-2
1.412206961E0,1.475391239E-1,2.556634545E-1,1.384843793E-2
1.413923114E0,1.012001261E-1,7.616640627E-2,-7.137271762E-2
1.416555691E0,3.302319720E-2,-1.246359423E-1,-1.075917110E-1
1.417975384E0,-6.018744037E-2,-2.013349831E-1,-9.001484513E-2
1.420846030E0,-1.416801661E-1,-1.688444167E-1,-2.609897964E-2
1.422085653E0,-1.720402092E-1,-1.070590764E-1,6.604639441E-2
1.424529191E0,-1.496696621E-1,-2.503371425E-2,1.336906850E-1
1.426208076E0,-1.214401498E-1,6.231797114E-2,1.507349163E-1
1.428623730E0,-1.198422536E-1,1.267664731E-1,1.374191195E-1
1.430341307E0,-1.539307088E-1,1.139832959E-1,1.070590764E-1
1.432772038E0,-1.778991669E-1,3.621899337E-2,6.125270575E-2
1.434537114E0,-1.853560209E-1,-4.314320907E-2,-1.171790902E-2
1.437278530E0,-1.635181010E-1,-1.145159304E-1,-6.072007492E-2
1.438577191E0,-1.102548689E-1,-1.901497096E-1,-5.006742850E-2
1.441379837E0,-4.048004746E-2,-1.496696621E-1,-1.065264456E-2
1.442939653E0,7.989483327E-2,2.077265643E-2,7.190535218E-2
1.445469722E0,1.422128081E-1,1.187769845E-1,1.161138266E-1
1.446699691E0,1.720402092E-1,1.502022892E-1,1.235706806E-1
1.449536799E0,1.661812514E-1,1.555286050E-1,7.723167539E-2
1.450760038E0,1.225054115E-1,9.960222989E-2,1.810949668E-2
1.453638645E0,5.006742850E-2,-4.953479767E-2,5.326322280E-4
1.454934307E0,5.858954508E-3,-1.571265012E-1,-8.522115648E-3
1.457740645E0,7.456851192E-3,-2.157160491E-1,9.054748341E-3
1.459082307E0,3.675162420E-2,-2.231729031E-1,5.432848632E-2
1.461842491E0,7.616640627E-2,-1.454086006E-1,1.012001261E-1
1.463433691E0,1.049285457E-1,7.456851192E-3,1.177117229E-1
1.465932760E0,1.027980223E-1,1.880191714E-1,9.054747969E-2
1.467131268E0,4.953479767E-2,2.828277051E-1,6.072007492E-2
1.470000106E0,-4.953479767E-2,2.652508616E-1,3.036003746E-2
1.471281807E0,-1.693770438E-1,1.789644361E-1,-1.065264456E-2
1.473902345E0,-2.609897852E-1,-1.810949668E-2,-3.195793182E-2
1.475413307E0,-3.036003709E-1,-2.269013226E-1,-3.249056637E-2
1.478204453E0,-2.743056118E-1,-3.382214606E-1,-2.396845073E-2
1.479461307E0,-1.912149638E-1,-3.233077526E-1,5.858954508E-3
1.482306914E0,-8.042746782E-2,-1.826928556E-1,5.699164793E-2
1.483662307E0,2.396845073E-2,1.704423130E-2,1.166464612E-1
1.485976576E0,9.161274135E-2,2.269013226E-1,1.459412277E-1
1.487755499E0,1.139832959E-1,3.424825370E-1,1.310275346E-1
1.490046422E0,9.214537591E-2,3.169161677E-1,6.817692518E-2
1.491770114E0,5.113269389E-2,1.763012707E-1,-2.716424316E-2
1.494186691E0,-1.278317347E-2,-1.182443574E-1,-1.278317273E-1
1.495930845E0,-4.420847446E-2,-2.434129268E-1,-1.091896072E-1
1.498533114E0,-6.125270575E-2,-2.050634027E-1,-4.207794741E-2
1.500043845E0,-5.592638254E-2,-1.171790883E-1,6.498113275E-2
1.502845183E0,-1.704423130E-2,3.195793368E-3,1.576591432E-1
1.504091999E0,1.704423130E-2,1.203748807E-1,1.976065636E-1
1.506519037E0,6.924218964E-3,1.960086524E-1,1.805623323E-1
1.508205730E0,-4.687163606E-2,1.448759735E-1,1.422128081E-1
1.510652845E0,-9.587380290E-2,1.597896684E-3,8.096009493E-2
1.512304691E0,-1.257012039E-1,-1.262338310E-1,-7.989482954E-3
1.514786499E0,-1.384843737E-1,-1.837581247E-1,-7.190535218E-2
1.516402230E0,-1.304948926E-1,-2.157160491E-1,-5.699164793E-2
1.519277837E0,-9.161274135E-2,-1.427454352E-1,-7.456851192E-3
1.520942884E0,-2.503371425E-2,9.587380104E-3,4.953479767E-2
1.523379260E0,3.355583176E-2,1.464738697E-1,9.800432622E-2
1.525142768E0,5.166532472E-2,2.050634027E-1,1.315601617E-1
1.527471760E0,2.130528912E-2,2.077265680E-1,1.129180342E-1
1.528677191E0,-4.527373984E-2,1.629854590E-1,4.420847446E-2
1.531539568E0,-1.166464612E-1,-5.326322280E-4,-7.989482954E-3
1.532743461E0,-1.613875628E-1,-1.901497096E-1,-3.036003746E-2
1.535642260E0,-1.422128081E-1,-2.924150825E-1,-2.716424316E-2
1.536877422E0,-7.989483327E-2,-3.105245829E-1,1.757686399E-2
1.539744183E0,2.130528912E-3,-1.922802329E-1,7.776430249E-2
1.541205576E0,7.936219871E-2,-3.728425596E-3,1.241033077E-1
1.543846221E0,1.427454352E-1,2.988066673E-1,1.043959185E-1
1.545440807E0,1.288969964E-1,3.520699143E-1,6.444849819E-2
1.547937337E0,6.657902896E-2,2.790992856E-1,1.278317347E-2
1.549313730E0,-2.769687586E-2,1.304948926E-1,-3.302319720E-2
1.552004760E0,-1.118527651E-1,-9.267801046E-2,-4.101268202E-2
1.553469691E0,-1.475391239E-1,-2.849582434E-1,-2.343581803E-2
1.555884153E0,-1.027980223E-1,-3.739078343E-1,5.326322280E-3
1.557420076E0,5.326322280E-4,-3.307646215E-1,4.793690145E-2
1.560209837E0,1.113201380E-1,-1.496696621E-1,1.059938148E-1
1.561515999E0,1.800296903E-1,9.534116834E-2,1.645833552E-1
1.564311914E0,1.832254827E-1,3.254382908E-1,1.858886480E-1
1.565579922E0,1.304948926E-1,4.154531360E-1,1.528654546E-1
1.568058845E0,4.846953228E-2,3.206445873E-1,6.178534031E-2
1.569712230E0,-3.675162420E-2,1.145159304E-1,-5.805691332E-2
1.572142807E0,-1.155811921E-1,-1.257012039E-1,-1.438107044E-1
1.573772384E0,-1.842907518E-1,-2.727077007E-1,-1.533980817E-1
1.576196845E0,-2.455434501E-1,-2.359560728E-1,-9.267801046E-2
1.577873691E0,-2.780340314E-1,-6.604639441E-2,7.989482954E-3
1.580600114E0,-2.663161159E-1,8.149272949E-2,1.214401498E-1
1.581944191E0,-2.141181529E-1,1.874865443E-1,1.858886480E-1
1.584851106E0,-1.784317940E-1,2.343581766E-1,1.832254827E-1
1.586085807E0,-1.965412945E-1,1.805623323E-1,1.480717659E-1
1.588484114E0,-2.402171344E-1,3.195793182E-2,9.800432622E-2
1.590190230E0,-2.247707993E-1,-1.608549356E-1,-2.716424316E-2
1.592604191E0,-1.507349163E-1,-2.125202566E-1,-7.776430249E-2
1.594294922E0,-4.633900523E-2,-1.976065636E-1,-4.048004746E-2
1.596769807E0,6.977482140E-2,-7.403588295E-2,5.060006306E-2
1.598399114E0,1.826928556E-1,1.166464612E-1,1.368864775E-1
1.601284375E0,2.700445354E-1,2.727077007E-1,1.970739216E-1
1.602567422E0,2.993393242E-1,3.009372056E-1,2.055960447E-1
1.605386760E0,2.620550692E-1,2.514024079E-1,1.411475390E-1
1.606998576E0,1.763012707E-1,1.129180342E-1,4.740426689E-2
1.609478337E0,6.338323653E-2,-6.338323653E-2,-1.651159860E-2
1.610729307E0,-2.663161233E-2,-2.189118415E-1,-2.556634694E-2
1.613546606E0,-7.297061384E-2,-2.940129936E-1,1.491370238E-2
1.614789307E0,-7.030745596E-2,-2.343581766E-1,7.882957160E-2
1.617649337E0,-4.474110901E-2,-8.096009493E-2,1.304948926E-1
1.618935576E0,-1.917476021E-2,1.043959185E-1,1.454086006E-1
1.621752183E0,-1.225054078E-2,2.833603323E-1,1.139832959E-1
1.623022345E0,-5.006742850E-2,3.616572917E-1,6.498113275E-2
1.625854644E0,-1.374191195E-1,3.323625028E-1,1.331580617E-2
1.627445460E0,-2.961435318E-1,9.001484513E-2,-1.970739290E-2
1.629945144E0,-3.270362020E-1,-1.384843793E-2,-2.183792181E-2
1.631247691E0,-3.275688291E-1,-2.167813182E-1,-1.384843793E-2
1.634012721E0,-2.418150306E-1,-3.371562064E-1,1.171790902E-2
1.635270614E0,-1.049285457E-1,-2.993393242E-1,5.752427876E-2
1.637915268E0,5.219795927E-2,-1.288969964E-1,1.294296384E-1
1.639542076E0,1.794970632E-1,9.480853379E-2,2.077265680E-1
1.642217144E0,2.732403278E-1,3.627225459E-1,2.498045117E-1
1.643513999E0,2.577939928E-1,3.866910040E-1,1.938781291E-1
1.646318990E0,1.928128600E-1,2.748382390E-1,7.456851006E-2
1.647585960E0,1.027980223E-1,8.468852192E-2,-5.113269389E-2
1.650066345E0,7.989482954E-3,-9.640643001E-2,-1.310275346E-1
1.651739153E0,-8.042746782E-2,-1.763012707E-1,-1.342233270E-1
1.654133730E0,-1.454086006E-1,-1.214401498E-1,-6.711166352E-2
1.655788576E0,-1.832254827E-1,2.290318534E-2,4.048004746E-2
1.658181037E0,-1.864212751E-1,1.587243974E-1,1.443433315E-1
1.660688067E0,-1.864212751E-1,2.439455539E-1,2.093244642E-1
1.662532230E0,-2.125202566E-1,2.705771625E-1,2.082591951E-1
1.663982845E0,-2.700445354E-1,1.704423130E-1,1.741707325E-1
1.666860298E0,-3.233077526E-1,1.597896591E-2,1.065264493E-1
1.668179037E0,-3.265035450E-1,-1.374191195E-1,2.609897964E-2
1.670475730E0,-2.769687474E-1,-2.221076339E-1,-2.343581803E-2
1.672246845E0,-1.944107562E-1,-2.151834220E-1,-1.065264456E-2
1.674737153E0,-8.628641814E-2,-8.255799860E-2,4.846953228E-2
1.676376960E0,5.326322466E-2,9.480853379E-2,1.187769845E-1
1.678779537E0,1.992044598E-1,2.556634545E-1,1.635181010E-1
1.680462653E0,2.865561247E-1,3.659183383E-1,1.592570394E-1
1.683295682E0,2.934803665E-1,3.446130455E-1,1.368864775E-1
1.684576345E0,2.316950262E-1,1.848233789E-1,1.177117229E-1
1.687398144E0,8.202536404E-2,-7.350324839E-2,6.125270575E-2
1.688953422E0,1.065264456E-2,-2.609897852E-1,6.018744037E-2
1.691490913E0,-2.929477207E-2,-3.430151641E-1,6.977482140E-2
1.692667076E0,-4.420847446E-2,-2.119876295E-1,5.645901710E-2
1.695558375E0,-5.326322466E-2,-1.597896684E-3,5.166532472E-2
1.696791999E0,-6.711166352E-2,2.402171344E-1,4.633900523E-2
1.699661490E0,-9.267801046E-2,4.149205089E-1,3.621899337E-2
1.700905576E0,-1.097222418E-1,4.170510471E-1,2.929477207E-2
1.703764259E0,-1.395496428E-1,2.775014043E-1,2.876213938E-2
1.705016037E0,-1.890844405E-1,4.367584363E-2,4.580637068E-2
1.707866413E0,-2.103897333E-1,-1.986718178E-1,5.379585549E-2
1.709447537E0,-1.720402092E-1,-3.403519988E-1,3.568635881E-2
1.711955952E0,-6.178534031E-2,-3.643204570E-1,2.290318534E-2
1.713139730E0,8.202536404E-2,-2.604571581E-1,5.273059011E-2
1.716023413E0,2.109223604E-1,-3.621899337E-2,1.225054115E-1
1.717227460E0,2.929477394E-1,1.992044598E-1,2.109223604E-1
1.720023922E0,3.147856593E-1,3.536677957E-1,2.577939928E-1
1.721471307E0,2.897519469E-1,3.632551730E-1,2.173139453E-1
1.724229067E0,2.135855258E-1,2.332929224E-1,9.480853379E-2
1.725680653E0,9.693906456E-2,1.970739290E-2,-4.953479767E-2
1.728331413E0,-4.740426689E-2,-1.470064968E-1,-1.603222936E-1
1.729580807E0,-1.858886480E-1,-1.794970632E-1,-1.965412945E-1
1.732048114E0,-2.929477394E-1,-1.118527651E-1,-1.363538504E-1
1.733710614E0,-3.398193717E-1,5.326322280E-3,-2.077265643E-2
1.736113268E0,-3.286340833E-1,1.741707325E-1,1.315601617E-1
1.737854191E0,-3.121224940E-1,2.332929224E-1,1.629854590E-1
1.740300730E0,-3.163835406E-1,1.896170676E-1,1.427454352E-1
1.741967191E0,-3.185140789E-1,8.042746782E-2,8.096009493E-2
1.744600345E0,-3.014698327E-1,-7.084008306E-2,1.544633508E-2
1.746042768E0,-2.577939928E-1,-1.842907518E-1,-1.970739290E-2
1.748870951E0,-1.661812514E-1,-2.604571581E-1,4.261057824E-3
1.750192114E0,-2.769687586E-2,-2.359560728E-1,5.273059011E-2
1.752535999E0,1.416801661E-1,-8.415589482E-2,9.161274135E-2
1.754212037E0,2.940129936E-1,1.129180342E-1,1.203748807E-1
1.756686268E0,3.808320463E-1,2.854908705E-1,1.432780623E-1
1.758334037E0,3.946804702E-1,3.387540877E-1,1.523328125E-1
1.760797499E0,3.552657068E-1,2.700445354E-1,1.278317273E-1
1.762525576E0,2.780340314E-1,8.575379103E-2,9.054747969E-2
1.765306451E0,1.699096859E-1,-1.416801661E-1,6.391586363E-2
1.766523691E0,1.864212751E-2,-2.492718846E-1,3.781688958E-2
1.769408490E0,-1.379517466E-1,-2.013349831E-1,1.438106969E-2
1.771030691E0,-2.908172011E-1,-1.491370238E-2,5.326322280E-4
1.773500567E0,-3.083940744E-1,5.965480953E-2,-3.195793368E-3
1.774678037E0,-2.940129936E-1,1.773665249E-1,3.195793368E-3
1.777567644E0,-2.476739883E-1,2.332929224E-1,3.515372798E-2
1.778856960E0,-2.199771106E-1,2.263686955E-1,8.841694891E-2
1.781669874E0,-2.130528986E-1,1.597896665E-1,1.406149119E-1
1.782913576E0,-1.603222936E-1,-2.716424316E-2,1.422128081E-1
1.785772105E0,-4.474110901E-2,-1.651159972E-1,9.747169912E-2
1.786993345E0,1.033306494E-1,-2.428802997E-1,6.977482140E-2
1.789875490E0,2.492718846E-1,-2.034655064E-1,9.853696078E-2
1.791440345E0,3.605920076E-1,-8.841694891E-2,1.874865443E-1
1.793966874E0,4.298342168E-1,1.246359423E-1,2.668487430E-1
1.795142114E0,4.543353021E-1,2.679139972E-1,3.004045784E-1
1.798034413E0,4.420847595E-1,2.828277051E-1,2.668487430E-1
1.799267730E0,3.589941263E-1,2.508697808E-1,1.432780623E-1
1.801945691E0,1.885518134E-1,1.922802329E-1,9.054748341E-3
1.803445306E0,-4.900216311E-2,1.059938148E-1,-7.456851006E-2
1.806237990E0,-3.004045784E-1,1.001348570E-1,-1.246359423E-1
1.807581306E0,-4.921521842E-1,6.391586363E-2,-1.097222418E-1
1.810340797E0,-5.976133347E-1,1.917476021E-2,-6.604639441E-2
1.811588960E0,-6.210491657E-1,2.396845073E-2,-5.858954508E-3
1.814007460E0,-6.205165386E-1,5.645901710E-2,4.580637068E-2
1.815692614E0,-5.949501991E-1,1.715075821E-1,8.841694891E-2
1.818150114E0,-5.203816891E-1,7.456851006E-2,1.470064968E-1
1.819811883E0,-4.138552547E-1,1.043959185E-1,1.267664731E-1
1.822241230E0,-2.924150825E-1,3.355583176E-2,1.070590764E-1
1.823971422E0,-1.518001854E-1,-1.134506613E-1,9.853696078E-2
1.826640499E0,1.810949668E-2,-1.288969964E-1,4.367584363E-2
1.828096960E0,1.938781291E-1,-5.912217870E-2,-8.522115648E-3
1.830876797E0,3.419498801E-1,2.343581803E-2,6.924218964E-3
1.832125922E0,4.852279723E-1,1.896170676E-1,9.747169912E-2
1.834557922E0,5.624596477E-1,1.832254827E-1,1.645833552E-1
1.836277191E0,6.103965044E-1,8.948221803E-2,1.970739216E-1
1.838754730E0,5.725796223E-1,-3.941478580E-2,1.901497096E-1
1.840412037E0,4.095941782E-1,-7.030745596E-2,1.347559541E-1
1.842875268E0,1.427454352E-1,5.326322280E-3,3.834952042E-2
1.844673576E0,-1.395496428E-1,8.575379103E-2,-6.604639441E-2
1.847310028E0,-3.451456726E-1,8.362326026E-2,-1.459412277E-1
1.848563999E0,-4.463458061E-1,5.219795927E-2,-1.869539171E-1
1.851411336E0,-4.692489803E-1,4.793690052E-3,-1.555286050E-1
1.853112768E0,-4.495415986E-1,-9.054748341E-3,-5.858954415E-2
1.855502336E0,-4.037352204E-1,1.544633508E-2,5.699164793E-2
1.856708883E0,-3.014698327E-1,4.793690145E-2,1.347559541E-1
1.859568720E0,-1.549959779E-1,3.515372798E-2,1.592570394E-1
1.861139653E0,2.929477207E-2,-3.994741663E-2,1.528654546E-1
1.863669374E0,2.013349831E-1,-1.363538504E-1,1.422128081E-1
1.865231037E0,3.286340833E-1,-1.699096859E-1,1.507349163E-1
1.867771143E0,3.909520507E-1,-1.533980817E-1,1.821602285E-1
1.869108806E0,4.005394280E-1,-4.633900523E-2,1.885518134E-1
1.871873028E0,4.026699662E-1,3.515372798E-2,1.491370201E-1
1.873457114E0,3.813646734E-1,1.454086006E-1,-3.728425596E-3
1.875963105E0,3.488741219E-1,1.629854590E-1,-4.900216311E-2
1.877142845E0,1.965412945E-1,2.183792144E-1,-1.033306494E-1
1.880030836E0,-6.231797114E-2,3.227751255E-1,-1.193096191E-1
1.881267191E0,-3.440804183E-1,3.115898669E-1,-8.948221803E-2
1.883944422E0,-6.274407506E-1,8.628641814E-2,-7.616640627E-2
1.885425460E0,-6.929545403E-1,-1.262338310E-1,-9.001484513E-2
1.888236220E0,-6.956176758E-1,-2.833603323E-1,-8.202536404E-2
1.889671037E0,-6.567355394E-1,-2.790992856E-1,-4.101268202E-2
1.892364912E0,-5.603290796E-1,-1.981391907E-1,4.207794741E-2
1.893799268E0,-4.016047120E-1,-5.432848632E-2,1.161138266E-1
1.896092268E0,-1.944107562E-1,4.420847446E-2,1.672465205E-1
1.897733691E0,2.024002373E-2,7.776430249E-2,1.693770438E-1
1.900323268E0,2.061286718E-1,1.150485575E-1,9.906959534E-2
1.901824922E0,3.467435837E-1,6.498113275E-2,9.054748341E-3
1.904330499E0,4.399542212E-1,6.338323653E-2,-8.149272949E-2
1.905959768E0,5.086637735E-1,-3.728425503E-2,-9.427590668E-2
1.908579768E0,5.752428174E-1,-1.054611802E-1,-5.273059011E-2
1.910078422E0,6.301039457E-1,-1.395496428E-1,2.130528912E-2
1.912901374E0,6.423544884E-1,-1.560612470E-1,1.193096191E-1
1.914128076E0,5.438175201E-1,-3.355583176E-2,1.731054783E-1
1.916574576E0,3.195793331E-1,1.384843737E-1,1.608549356E-1
1.918261845E0,1.651159860E-2,3.020024598E-1,6.498113275E-2
1.920653460E0,-2.876214087E-1,3.046656251E-1,-8.255799860E-2
1.922346729E0,-5.054680109E-1,1.512675583E-1,-2.332929224E-1
1.924799614E0,-6.151902080E-1,-6.125270575E-2,-3.270362020E-1
1.926482268E0,-6.434197426E-1,-2.253034264E-1,-2.386192381E-1
1.929310960E0,-5.864281058E-1,-1.747033745E-1,-6.285060197E-2
1.930545345E0,-4.165183902E-1,-8.149272949E-2,1.155811921E-1
1.933436528E0,-1.443433315E-1,-4.367584363E-2,2.311623842E-1
1.935130114E0,1.656486243E-1,-5.592638254E-2,2.695119083E-1
1.937528258E0,4.154531360E-1,-8.468852192E-2,2.492718846E-1
1.938702922E0,5.331648588E-1,-9.054747969E-2,1.986718178E-1
1.941595374E0,5.219795704E-1,-4.580637068E-2,1.288969964E-1
1.942801153E0,4.585963488E-1,1.491370238E-2,2.876213938E-2
1.945697643E0,4.159857631E-1,3.036003746E-2,-8.255799860E-2
1.946935883E0,4.026699662E-1,6.924218964E-3,-1.672465205E-1
1.949774528E0,3.685815036E-1,1.917476021E-2,-1.901497096E-1
1.951070499E0,2.620550692E-1,1.177117229E-1,-1.427454352E-1
1.953887028E0,7.243798673E-2,2.700445354E-1,-5.326322466E-2
1.955487537E0,-1.555286050E-1,3.440804183E-1,2.769687586E-2
1.957977566E0,-3.456783295E-1,2.439455539E-1,5.060006306E-2
1.959198691E0,-4.756405652E-1,5.379585549E-2,-1.331580617E-2
1.962044335E0,-5.784385800E-1,-1.619201899E-1,-9.640643001E-2
1.963255499E0,-6.572681665E-1,-2.934803665E-1,-1.448759735E-1
1.965961806E0,-6.801713705E-1,-2.876214087E-1,-1.320927888E-1
1.967485076E0,-6.008091569E-1,-1.869539171E-1,-7.616640627E-2
1.970249758E0,-4.181163013E-1,-6.498113275E-2,5.858954508E-3
1.971532845E0,-1.704423130E-1,-2.183792181E-2,9.693906456E-2
1.974352297E0,7.776430249E-2,5.539375171E-2,1.171790883E-1
1.975621076E0,2.737729549E-1,1.549959779E-1,7.030745596E-2
1.978045576E0,4.612595141E-1,9.747169912E-2,-1.012001187E-2
1.979724999E0,5.230448246E-1,5.539375171E-2,-7.243798673E-2
1.982090268E0,5.507417321E-1,-3.994741663E-2,-8.255799860E-2
1.983818191E0,5.448827744E-1,-1.635181010E-1,-3.089267015E-2
1.986232191E0,5.193164349E-1,-1.576591432E-1,1.118527725E-2
1.987940576E0,4.468784332E-1,-1.486043930E-1,8.096009493E-2
1.990571422E0,2.428802997E-1,4.953479767E-2,9.427590668E-2
1.992019499E0,-3.781688958E-2,3.057309091E-1,4.314320907E-2
1.994891104E0,-2.966761589E-1,3.041329980E-1,-3.355583176E-2
1.996175037E0,-4.399542212E-1,2.199771106E-1,-1.715075821E-1
1.998552768E0,-4.830974340E-1,1.597896591E-2,-2.700445354E-1
2.000417345E0,-5.097290277E-1,-1.443433315E-1,-2.524676621E-1
2.002684306E0,-5.134574771E-1,-2.146507949E-1,-1.123853996E-1
2.004376422E0,-4.154531360E-1,-1.976065636E-1,5.166532472E-2
2.006859460E0,-2.157160491E-1,-9.960222989E-2,1.571265012E-1
2.008525768E0,2.663161233E-2,-6.764429063E-2,2.295644879E-1
2.011323374E0,2.604571581E-1,-1.022653878E-1,2.583266199E-1
2.012576383E0,4.612595141E-1,-9.321063757E-2,2.098570913E-1
2.015429912E0,5.789712071E-1,-5.006742850E-2,1.182443574E-1
2.017124845E0,5.651227832E-1,2.290318534E-2,7.989482954E-3
2.019521027E0,5.336974859E-1,5.539375171E-2,-2.982740477E-2
2.020818229E0,4.846953154E-1,1.065264493E-1,-1.091896072E-1
2.023588104E0,4.330300093E-1,1.102548689E-1,-1.523328125E-1
2.024885768E0,2.535329461E-1,1.177117229E-1,-1.129180342E-1
2.027690450E0,4.261057824E-2,2.029328793E-1,-6.604639441E-2
2.029066729E0,-2.071939409E-1,2.386192381E-1,-2.024002373E-2
2.031792873E0,-4.229099751E-1,1.683117896E-1,-1.704423130E-2
2.033253537E0,-5.699164867E-1,2.183792181E-2,-7.243798673E-2
2.035895566E0,-6.530070901E-1,-1.262338310E-1,-1.363538504E-1
2.037500614E0,-6.945524216E-1,-1.906823367E-1,-1.667138934E-1
2.039987143E0,-6.823018789E-1,-1.768338978E-1,-1.267664731E-1
2.041177768E0,-5.901564956E-1,-1.219727769E-1,-3.568635881E-2
2.044054335E0,-4.095941782E-1,2.663161140E-3,3.621899337E-2
2.045358960E0,-1.816275865E-1,3.408846259E-2,9.853696078E-2
2.048155576E0,6.977482140E-2,2.396845073E-2,1.065264493E-1
2.049523306E0,2.956108749E-1,-2.663161140E-3,6.018744037E-2
2.052258527E0,4.585963488E-1,3.728425596E-3,0.000000000E0
2.053553691E0,5.198490620E-1,3.195793368E-3,-1.704423130E-2
2.056361066E0,5.006743073E-1,1.757686399E-2,-3.728425596E-3
2.057776076E0,5.028048158E-1,-2.183792181E-2,2.077265643E-2
2.060080499E0,5.390238166E-1,-1.161138266E-1,2.503371425E-2
2.061766191E0,5.294364095E-1,-1.230380461E-1,8.522115648E-3
2.064133383E0,4.159857631E-1,-3.355583176E-2,-3.195793368E-3
2.065849345E0,1.997370869E-1,1.523328125E-1,-2.609897964E-2
2.068262652E0,-4.846953228E-2,3.355582952E-1,-7.669904083E-2
2.070001229E0,-2.487392575E-1,3.366235793E-1,-1.246359423E-1
2.072694883E0,-4.053331316E-1,1.001348570E-1,-1.736381054E-1
2.074060152E0,-4.522047639E-1,-9.108011425E-2,-1.464738697E-1
2.076901258E0,-4.452805519E-1,-2.269013226E-1,-6.711166352E-2
2.078155922E0,-3.717772961E-1,-2.625876963E-1,2.237055451E-2
2.080601614E0,-2.279665917E-1,-2.194444835E-1,1.001348570E-1
2.082309114E0,-1.917476021E-2,-1.549959779E-1,1.549959779E-1
2.084771691E0,2.231729031E-1,-1.155811921E-1,1.752360016E-1
2.086402152E0,4.346278906E-1,-6.711166352E-2,1.656486243E-1
2.089098383E0,5.326322317E-1,1.597896591E-2,1.384843737E-1
2.090553999E0,4.990763962E-1,1.304948926E-1,9.321063757E-2
2.093335296E0,4.101268053E-1,1.784317940E-1,2.290318534E-2
2.094813960E0,3.350256681E-1,1.288969964E-1,-8.096009493E-2
2.097437450E0,2.759034932E-1,2.982740477E-2,-1.810949594E-1
2.099023037E0,1.864212751E-1,-5.432848632E-2,-2.103897333E-1
2.101529912E0,3.941478580E-2,-2.822950855E-2,-1.747033745E-1
2.102776499E0,-1.491370201E-1,1.203748807E-1,-1.123853996E-1
2.105597296E0,-3.265035450E-1,2.444781959E-1,-6.125270575E-2
2.106945037E0,-4.426173866E-1,2.556634545E-1,-4.633900523E-2
2.109700412E0,-5.054680109E-1,1.693770438E-1,-7.297061384E-2
2.110979268E0,-5.411543250E-1,2.609897964E-2,-9.640643001E-2
2.113802989E0,-5.560680628E-1,-9.587380290E-2,-1.006674916E-1
2.115189768E0,-5.230448246E-1,-1.693770438E-1,-8.522115648E-2
2.117907027E0,-4.191815555E-1,-1.933455020E-1,-4.314320907E-2
2.119533306E0,-1.560612470E-1,-1.523328125E-1,3.941478580E-2
2.121998489E0,7.776430249E-2,-9.747169912E-2,7.403588295E-2
2.123280268E0,3.158509135E-1,-2.237055451E-2,7.882957160E-2
2.126066181E0,5.054680109E-1,5.699164793E-2,5.965480953E-2
2.127275806E0,6.040049195E-1,1.246359423E-1,4.154531285E-2
2.129939883E0,6.215817928E-1,1.667138934E-1,2.503371425E-2
2.131429268E0,5.896238685E-1,9.001484513E-2,2.716424316E-2
2.134272758E0,5.342301130E-1,-1.651159860E-2,2.503371425E-2
2.135552729E0,4.585963488E-1,-1.432780623E-1,2.663161233E-2
2.138375335E0,3.323625028E-1,-1.965412945E-1,3.355583176E-2
2.139671499E0,1.528654546E-1,-9.534116834E-2,1.065264456E-2
2.142072652E0,-3.675162420E-2,6.711166352E-2,-3.941478580E-2
2.143760691E0,-1.901497096E-1,2.103897333E-1,-1.081243455E-1
2.146182075E0,-2.886866629E-1,2.647182047E-1,-1.656486243E-1
2.148004883E0,-3.542004228E-1,2.311623842E-1,-1.741707325E-1
2.150272499E0,-4.042678475E-1,1.715075821E-1,-1.315601617E-1
2.152135999E0,-4.324973822E-1,4.740426689E-2,-3.462109342E-2
2.154629729E0,-4.037352204E-1,-1.049285457E-1,5.645901710E-2
2.156216883E0,-2.881540358E-1,-2.306297570E-1,9.480853379E-2
2.158910719E0,-1.075917110E-1,-3.009372056E-1,9.480853379E-2
2.160232152E0,9.906959534E-2,-2.961435318E-1,8.255799860E-2
2.162666960E0,2.838929892E-1,-1.965412945E-1,8.522115648E-2
2.164389037E0,4.069310129E-1,-1.757686399E-2,9.747169912E-2
2.166819806E0,4.751079381E-1,2.482066154E-1,9.108011425E-2
2.168432845E0,4.585963488E-1,3.020024598E-1,4.580637068E-2
2.170921806E0,4.079962969E-1,2.386192381E-1,-3.675162420E-2
2.172539345E0,3.185140789E-1,9.693906456E-2,-1.150485575E-1
2.175343911E0,1.896170676E-1,-3.888215125E-2,-1.576591432E-1
2.176699729E0,3.568635881E-2,-9.054747969E-2,-1.651159972E-1
2.179446450E0,-1.193096191E-1,-5.219795927E-2,-1.384843737E-1
2.181253960E0,-2.439455539E-1,3.408846259E-2,-9.960222989E-2
2.183538565E0,-3.339604139E-1,1.230380461E-1,-6.338323653E-2
2.184792345E0,-4.037352204E-1,1.917476058E-1,-3.781688958E-2
2.187606181E0,-4.543353021E-1,1.853560209E-1,-2.396845073E-2
2.189197922E0,-4.692489803E-1,9.374327213E-2,-1.864212751E-2
2.191709450E0,-4.202468395E-1,-4.633900523E-2,-3.941478580E-2
2.193083460E0,-3.312972486E-1,-1.491370201E-1,-6.231797114E-2
2.195812257E0,-2.189118415E-1,-2.215750068E-1,-4.527373984E-2
2.197152191E0,-9.427590668E-2,-2.141181529E-1,7.456851192E-3
2.199914488E0,6.604639441E-2,-1.560612470E-1,6.870955974E-2
2.201572691E0,3.110572100E-1,1.278317347E-2,9.693906456E-2
2.203973796E0,3.829625845E-1,5.592638254E-2,9.214537591E-2
2.205307114E0,4.894890189E-1,1.017327532E-1,6.125270575E-2
2.208042104E0,5.193164349E-1,1.672465205E-1,-3.195793368E-3
2.209338806E0,4.868258536E-1,2.071939409E-1,-4.900216311E-2
2.211965652E0,4.298342168E-1,6.657902896E-2,-2.982740477E-2
2.213441075E0,3.637878001E-1,1.704423130E-2,-3.302319720E-2
2.216247911E0,2.902845740E-1,-8.681905270E-2,-5.326322280E-4
2.217534806E0,1.837581247E-1,-1.150485575E-1,3.249056637E-2
2.220350680E0,-3.249056637E-2,7.989483327E-2,-1.012001187E-2
2.221668652E0,-1.294296384E-1,6.338323653E-2,-3.302319720E-2
2.224213152E0,-2.024002522E-1,1.954760253E-1,-1.235706806E-1
2.225927268E0,-2.817624509E-1,2.082591951E-1,-1.358212233E-1
2.228139037E0,-3.680488765E-1,1.081243455E-1,-5.752427876E-2
2.230043998E0,-4.048005044E-1,2.822950855E-2,1.171790902E-2
2.232281806E0,-3.403519988E-1,-1.081243455E-1,5.113269389E-2
2.233992498E0,-2.327602804E-1,-1.917476058E-1,5.805691332E-2
2.236666498E0,-1.283643693E-1,-2.226402760E-1,7.936219871E-2
2.238137922E0,1.597896684E-3,-2.215750068E-1,9.853696078E-2
2.240889180E0,1.390170157E-1,-9.161274135E-2,7.882957160E-2
2.242161575E0,2.391518652E-1,7.456851006E-2,5.326322466E-2
2.244620691E0,2.822950780E-1,1.683117896E-1,5.273059011E-2
2.246407498E0,2.652508616E-1,2.295644879E-1,2.982740477E-2
2.248767498E0,2.306297570E-1,2.540655732E-1,-3.675162420E-2
2.250423114E0,1.885518134E-1,1.304948926E-1,-8.894958347E-2
2.253103191E0,1.379517466E-1,-1.065264456E-3,-1.262338310E-1
2.254500422E0,9.054747969E-2,-9.374327213E-2,-1.315601617E-1
2.257327603E0,3.249056637E-2,-1.086569726E-1,-9.480853379E-2
2.258836537E0,-3.302319720E-2,-1.438106969E-2,-5.113269389E-2
2.261430296E0,-9.747169912E-2,9.640643001E-2,5.326322280E-4
2.263027806E0,-1.800296903E-1,2.205097377E-1,3.195793182E-2
2.265523026E0,-2.119876295E-1,1.400822699E-1,3.621899337E-2
2.267037960E0,-2.119876295E-1,1.970739290E-2,6.391586736E-3
2.269590680E0,-1.853560209E-1,-1.161138266E-1,-3.142530099E-2
2.270930383E0,-1.528654546E-1,-1.874865443E-1,-4.207794741E-2
2.273693949E0,-1.214401498E-1,-1.954760253E-1,-6.391586736E-3
2.275198114E0,-7.084008306E-2,-1.257012039E-1,4.580637068E-2
2.277796988E0,1.065264456E-3,-2.077265643E-2,9.001484513E-2
2.279083306E0,7.776430249E-2,4.420847446E-2,1.081243455E-1
2.281900065E0,1.470064968E-1,9.001484513E-2,7.989483327E-2
2.283629845E0,1.816275865E-1,1.145159304E-1,6.391586736E-3
2.285958065E0,1.752360016E-1,1.454086006E-1,-7.403588295E-2
2.287403883E0,1.304948926E-1,1.134506613E-1,-1.017327532E-1
2.290008142E0,8.255799860E-2,3.834952042E-2,-7.829693705E-2
2.291248075E0,6.977482140E-2,-4.367584363E-2,-2.876213938E-2
2.293962422E0,9.427590668E-2,-1.246359423E-1,3.994741663E-2
2.295383229E0,1.081243455E-1,-1.363538504E-1,8.948221803E-2
2.298179065E0,8.149272949E-2,-4.101268202E-2,9.800432622E-2
2.299460845E0,3.249056637E-2,8.894958347E-2,5.486112088E-2
2.302281988E0,-6.391586736E-3,1.970739216E-1,-2.343581803E-2
2.303846422E0,-2.663161233E-2,2.008023560E-1,-8.894958347E-2
2.306018152E0,-5.432848632E-2,1.603222936E-1,-1.166464612E-1
2.307766306E0,-1.054611802E-1,8.202536404E-2,-7.403588295E-2
2.310268575E0,-1.549959779E-1,-9.054748341E-3,8.522115648E-3
2.311861652E0,-1.565938741E-1,-9.214537591E-2,7.936219871E-2
2.314223652E0,-9.480853379E-2,-1.731054783E-1,1.118527651E-1
2.315960614E0,1.225054078E-2,-2.269013226E-1,1.155811921E-1
2.318602998E0,1.549959779E-1,-1.523328125E-1,8.841694891E-2
2.320022960E0,1.784317940E-1,1.757686399E-2,7.403588295E-2
2.322824834E0,1.400822699E-1,1.960086524E-1,6.178534031E-2
2.324084921E0,7.456851006E-2,2.796319127E-1,2.450108156E-2
2.326525729E0,1.012001187E-2,2.892192900E-1,-6.657902896E-2
2.328326729E0,-2.929477207E-2,1.555286050E-1,-1.528654546E-1
2.330823383E0,-5.219795927E-2,-3.462109342E-2,-2.082591951E-1
2.332366537E0,-5.486112088E-2,-1.454086006E-1,-2.167813182E-1
2.334808075E0,-6.551376730E-2,-1.667138934E-1,-1.576591432E-1
2.336515460E0,-8.096009493E-2,-6.231797114E-2,-7.137271762E-2
2.339262757E0,-6.551376730E-2,1.757686399E-2,1.225054078E-2
2.340577960E0,-1.864212751E-2,9.374327213E-2,4.367584363E-2
2.343365911E0,1.438106969E-2,1.171790883E-1,3.249056637E-2
2.344924883E0,1.225054078E-2,5.166532472E-2,1.597896591E-2
2.347458526E0,-6.391586736E-3,-2.237055451E-2,-2.343581803E-2
2.348671114E0,-6.391586736E-3,-9.161274135E-2,-6.178534031E-2
2.351527257E0,2.663161140E-3,-1.507349163E-1,-7.030745596E-2
2.352837806E0,2.556634694E-2,-1.715075821E-1,-3.781688958E-2
2.355630334E0,6.178534031E-2,-1.480717659E-1,2.396845073E-2
2.356924498E0,1.017327532E-1,-6.285060197E-2,7.456851006E-2
2.359733834E0,1.331580579E-1,8.042746782E-2,8.468852192E-2
2.361151037E0,1.512675583E-1,1.310275346E-1,8.735168725E-2
2.363837103E0,1.363538504E-1,1.342233270E-1,4.793690145E-2
2.365471729E0,5.645901710E-2,8.309062570E-2,-2.130528912E-2
2.367928488E0,-1.757686399E-2,-3.888215125E-2,-9.054748341E-3
2.369228960E0,-9.161274135E-2,-1.017327532E-1,2.183792181E-2
2.371996757E0,-1.480717659E-1,-1.725728363E-1,8.681905270E-2
2.373296537E0,-1.896170676E-1,-1.470064968E-1,1.219727769E-1
2.375927883E0,-2.018676102E-1,-6.870955974E-2,1.097222418E-1
2.377528921E0,-1.842907518E-1,2.450108156E-2,5.113269389E-2
2.380204257E0,-1.475391239E-1,1.033306494E-1,-2.024002373E-2
2.381548498E0,-9.427590668E-2,6.870955974E-2,-5.486112088E-2
2.384334603E0,-1.544633508E-2,1.171790902E-2,-6.870955974E-2
2.385921614E0,4.846953228E-2,-5.432848632E-2,-3.621899337E-2
2.388020691E0,3.568635881E-2,-1.038632840E-1,4.101268202E-2
2.389738845E0,1.065264456E-3,-1.906823367E-1,1.187769845E-1
2.392304152E0,3.195793182E-2,-2.375539690E-1,9.693906456E-2
2.393825768E0,1.304948926E-1,-2.514024079E-1,-9.054748341E-3
2.396261383E0,2.295644879E-1,-2.593919039E-1,-9.001484513E-2
2.398107998E0,2.727077007E-1,-2.151834220E-1,-1.198422536E-1
2.400645883E0,2.854908705E-1,-6.444849819E-2,-1.363538504E-1
2.402063306E0,2.844256163E-1,6.711166352E-2,-1.523328125E-1
2.404877411E0,2.641855776E-1,1.150485575E-1,-1.709749401E-1
2.406256614E0,2.284992188E-1,9.054748341E-3,-1.954760253E-1
2.408598114E0,1.944107562E-1,-1.390170157E-1,-2.428802997E-1
2.410264114E0,1.560612470E-1,-2.998719513E-1,-2.886866629E-1
2.412707614E0,3.142530099E-2,-4.143878818E-1,-2.902845740E-1
2.414557229E0,-5.858954415E-2,-4.063983858E-1,-2.631203234E-1
2.417167075E0,-9.374327213E-2,-3.542004228E-1,-2.551308274E-1
2.418535921E0,-1.001348570E-1,-2.615224123E-1,-2.796319127E-1
2.421316526E0,-1.267664731E-1,-1.906823367E-1,-2.918824553E-1
2.422672460E0,-1.773665249E-1,-1.672465205E-1,-2.892192900E-1
2.425420103E0,-2.077265680E-1,-2.157160491E-1,-2.929477394E-1
2.427102729E0,-1.736381054E-1,-3.249056637E-1,-3.169161677E-1
2.429512026E0,-1.177117229E-1,-4.585963488E-1,-3.414172530E-1
2.430750537E0,-6.338323653E-2,-5.677859783E-1,-3.350256681E-1
2.433581064E0,1.065264456E-3,-5.986786485E-1,-3.163835406E-1
2.434900075E0,9.321063757E-2,-5.336974859E-1,-3.062635362E-1
2.437685141E0,1.970739216E-1,-4.069310129E-1,-3.211772442E-1
2.439059960E0,2.801645398E-1,-2.865561247E-1,-3.456783295E-1
2.441789257E0,3.387540877E-1,-2.210423797E-1,-3.744404614E-1
2.443048229E0,3.669835925E-1,-1.944107562E-1,-4.106594622E-1
2.445892757E0,3.621899188E-1,-2.727077007E-1,-4.058657587E-1
2.447499844E0,3.147856593E-1,-4.852279723E-1,-3.414172530E-1
2.449985064E0,3.020024598E-1,-5.747101903E-1,-3.110572100E-1
2.451276383E0,2.743056118E-1,-7.137271762E-1,-2.641855776E-1
2.454054603E0,2.391518652E-1,-7.238472104E-1,-2.700445354E-1
2.455313614E0,2.061286718E-1,-6.716492176E-1,-3.121224940E-1
2.457968037E0,1.741707325E-1,-5.427522659E-1,-3.882888854E-1
2.459438537E0,1.326254308E-1,-3.664509654E-1,-4.729774296E-1
2.462262449E0,1.651159860E-2,-1.997370869E-1,-5.214469433E-1
2.463567883E0,-6.551376730E-2,-2.370213419E-1,-4.985437691E-1
2.466366679E0,-1.091896072E-1,-3.856257200E-1,-4.633900523E-1
2.467816037E0,-1.134506613E-1,-5.917543769E-1,-4.452805519E-1
2.470176575E0,-8.575379103E-2,-7.536746264E-1,-4.442152679E-1
2.471797191E0,-4.154531285E-2,-8.261125684E-1,-4.404868484E-1
2.474153614E0,2.663161233E-2,-7.749798894E-1,-4.271710515E-1
2.475894114E0,1.129180342E-1,-6.455502510E-1,-4.048005044E-1
2.478282691E0,1.997370869E-1,-4.958806038E-1,-3.872236311E-1
2.480125306E0,2.673813701E-1,-3.637878001E-1,-3.936152160E-1
2.482616268E0,3.073287904E-1,-3.073287904E-1,-4.362258017E-1
2.484071191E0,3.249056637E-1,-3.451456726E-1,-5.028048158E-1
2.486912602E0,3.222424984E-1,-4.655205607E-1,-5.715143681E-1
2.488494191E0,3.094593287E-1,-5.944175720E-1,-6.194512844E-1
2.490647729E0,2.769687474E-1,-6.791061163E-1,-6.194512844E-1
2.492408191E0,2.162486911E-1,-6.695187092E-1,-5.816344023E-1
2.494728114E0,1.725728363E-1,-6.285060048E-1,-5.161206126E-1
2.496411306E0,1.518001854E-1,-5.715143681E-1,-4.660531878E-1
2.498996037E0,1.384843737E-1,-5.134574771E-1,-4.442152679E-1
2.500708344E0,1.027980223E-1,-4.900216460E-1,-4.372910559E-1
2.503354218E0,5.645901710E-2,-5.374259353E-1,-4.442152679E-1
2.504693114E0,3.249056637E-2,-6.146575809E-1,-4.841626883E-1
2.507458718E0,4.420847446E-2,-7.014766335E-1,-5.587311983E-1
2.509145037E0,5.166532472E-2,-7.376956344E-1,-5.544701219E-1
2.511552987E0,8.149272949E-2,-7.147924304E-1,-5.246427655E-1
2.512964344E0,1.640507281E-1,-6.615292430E-1,-5.155879855E-1
2.515622795E0,2.753708661E-1,-5.608617067E-1,-5.406216979E-1
2.516975614E0,3.632551730E-1,-4.591289759E-1,-5.784385800E-1
2.519727064E0,3.952131271E-1,-3.936152160E-1,-6.029396653E-1
2.521200421E0,3.861583769E-1,-3.840278387E-1,-5.997439027E-1
2.523831102E0,3.520699143E-1,-4.740426838E-1,-5.688512325E-1
2.525203537E0,3.323625028E-1,-6.450176239E-1,-5.267732739E-1
2.527934987E0,3.334277868E-1,-8.452873230E-1,-4.889563918E-1
2.529809191E0,3.073287904E-1,-9.337043166E-1,-4.884237647E-1
2.532027910E0,2.322276533E-1,-8.378304839E-1,-5.352953672E-1
2.533568883E0,1.432780623E-1,-6.902913451E-1,-5.986786485E-1
2.536097372E0,9.480853379E-2,-5.507417321E-1,-6.764429212E-1
2.537861383E0,9.640643001E-2,-4.804342687E-1,-7.382282615E-1
2.540048229E0,1.150485575E-1,-4.783037305E-1,-7.462177277E-1
2.541612498E0,1.123853996E-1,-5.230448246E-1,-6.902913451E-1
2.544305179E0,8.841694891E-2,-6.157228351E-1,-6.002765298E-1
2.545573421E0,1.043959185E-1,-7.110640407E-1,-5.496764779E-1
2.548409371E0,1.880191714E-1,-8.223841786E-1,-5.512743592E-1
2.549884075E0,3.185140789E-1,-9.044095278E-1,-5.720469952E-1
2.552152037E0,4.431500137E-1,-9.347695708E-1,-5.560680628E-1
2.554087652E0,5.299690962E-1,-8.436894417E-1,-5.166532397E-1
2.556199614E0,5.608617067E-1,-5.976133347E-1,-4.601942301E-1
2.558008075E0,5.320996046E-1,-4.564658105E-1,-4.825648069E-1
2.560675729E0,4.852279723E-1,-4.532700181E-1,-5.624596477E-1
2.562061767E0,4.186489284E-1,-5.486112237E-1,-6.684534550E-1
2.564837267E0,3.051982522E-1,-6.807039976E-1,-7.488809228E-1
2.566211075E0,1.390170157E-1,-7.297061682E-1,-7.808388472E-1
2.568956525E0,-6.072007492E-2,-7.440872192E-1,-7.414240837E-1
2.570416037E0,-2.269013226E-1,-7.318366766E-1,-6.743124127E-1
2.572924421E0,-3.169161677E-1,-7.371630073E-1,-6.269081235E-1
2.574313960E0,-3.318298757E-1,-7.419567108E-1,-6.167881489E-1
2.576843729E0,-3.206445873E-1,-7.334345579E-1,-6.178534031E-1
2.578451767E0,-2.988066673E-1,-7.052050829E-1,-5.965480804E-1
2.580887537E0,-2.492718846E-1,-7.467503548E-1,-5.422195792E-1
2.582671960E0,-1.187769845E-1,-8.165252209E-1,-5.060006380E-1
2.585396756E0,7.297061384E-2,-9.092032313E-1,-5.235774517E-1
2.586734806E0,3.121224940E-1,-8.756473660E-1,-6.221144199E-1
2.589500141E0,5.230448246E-1,-7.685883045E-1,-7.291735411E-1
2.591012229E0,7.472830415E-1,-5.155879855E-1,-7.824367285E-1
2.593593756E0,7.861651778E-1,-4.287689328E-1,-7.621967196E-1
2.594826537E0,8.042746782E-1,-3.169161677E-1,-6.748450398E-1
2.597662371E0,7.882956862E-1,-4.090615511E-1,-5.555354357E-1
2.598918652E0,7.547398806E-1,-6.514092088E-1,-4.873584807E-1
2.601765717E0,5.917543769E-1,-9.321063757E-1,-5.651227832E-1
2.603118960E0,3.233077526E-1,-9.475527406E-1,-6.524744630E-1
2.605869487E0,-1.278317347E-2,-8.341020942E-1,-7.190535069E-1
2.607075921E0,-2.641855776E-1,-7.760451436E-1,-7.536746264E-1
2.609973602E0,-3.605920076E-1,-7.558051348E-1,-7.909588814E-1
2.611540921E0,-3.467435837E-1,-7.270429730E-1,-8.223841786E-1
2.614066333E0,-3.222424984E-1,-6.695187092E-1,-8.053399324E-1
2.615264998E0,-2.982740402E-1,-5.832322836E-1,-7.488809228E-1
2.618135794E0,-2.103897333E-1,-5.363606811E-1,-6.940197945E-1
2.619368075E0,-5.858954508E-3,-6.066681147E-1,-6.498113275E-1
2.621998421E0,2.908172011E-1,-8.005462289E-1,-5.848301649E-1
2.623575691E0,5.986786485E-1,-1.024251819E0,-4.969458580E-1
2.626311410E0,8.628641963E-1,-1.114799261E0,-4.261057973E-1
2.627684460E0,1.041296005E0,-1.007207513E0,-4.340952635E-1
2.630384833E0,1.129180312E0,-6.940197945E-1,-5.390238166E-1
2.631632383E0,1.115331888E0,-3.978762627E-1,-6.727145314E-1
2.634199383E0,1.028512836E0,-2.253034264E-1,-7.872304320E-1
2.635788037E0,8.692557812E-1,-2.247707993E-1,-8.506136537E-1
2.638139767E0,6.231797338E-1,-2.881540358E-1,-8.527442217E-1
2.639853883E0,2.812298238E-1,-4.495415986E-1,-7.574030161E-1
2.642324075E0,-9.001484513E-2,-7.882956862E-1,-5.954828262E-1
2.644032921E0,-3.307646215E-1,-1.140898228E0,-4.868258536E-1
2.646610690E0,-4.101268053E-1,-1.386974335E0,-4.990763962E-1
2.648072652E0,-3.957457542E-1,-1.316134214E0,-5.954828262E-1
2.650927910E0,-3.435477912E-1,-1.075384498E0,-6.567355394E-1
2.652205344E0,-1.917476058E-1,-5.896238685E-1,-6.364955306E-1
2.654559037E0,-5.273059011E-2,-2.034655064E-1,-6.418218613E-1
2.656316152E0,5.912217870E-2,-7.243798673E-2,-6.375607848E-1
2.658710614E0,1.422128081E-1,-2.077265680E-1,-6.551376581E-1
2.660402190E0,2.151834220E-1,-4.905542731E-1,-7.329019308E-1
2.662991652E0,2.652508616E-1,-7.973504663E-1,-8.213189244E-1
2.664540729E0,2.370213419E-1,-1.042361259E0,-8.149272799E-1
2.667367217E0,1.347559541E-1,-1.099352956E0,-7.339671850E-1
2.668603037E0,7.084008306E-2,-9.672601223E-1,-6.604639888E-1
2.671471602E0,1.097222418E-1,-7.621967196E-1,-6.364955306E-1
2.673193690E0,1.880191714E-1,-5.667206645E-1,-6.306365728E-1
2.675565756E0,1.906823367E-1,-4.271710515E-1,-5.874933600E-1
2.676798652E0,1.193096191E-1,-3.962783813E-1,-5.155879855E-1
2.679635756E0,1.033306494E-1,-5.731122494E-1,-4.719121456E-1
2.680873767E0,2.721750736E-1,-9.608685374E-1,-4.873584807E-1
2.683739909E0,5.352953672E-1,-1.331580520E0,-5.576659441E-1
2.685117075E0,7.014766335E-1,-1.274056315E0,-6.737797856E-1
2.687843409E0,7.137271762E-1,-8.932242393E-1,-7.382282615E-1
2.689154306E0,6.860303283E-1,-4.788363874E-1,-7.302387953E-1
2.691947102E0,7.371630073E-1,-8.735168725E-2,-7.526093125E-1
2.693718037E0,8.341020942E-1,-1.507349163E-1,-6.700513363E-1
2.696037717E0,8.266451955E-1,-2.988066673E-1,-6.082659960E-1
2.697259037E0,7.238472104E-1,-7.307714224E-1,-4.878911078E-1
2.700106409E0,5.826996565E-1,-1.009338021E0,-5.012069345E-1
2.701399190E0,3.659183383E-1,-1.149420381E0,-6.444849968E-1
2.704139767E0,1.981391907E-1,-1.099885583E0,-6.902913451E-1
2.705534306E0,1.033306494E-1,-9.528790712E-1,-6.998787522E-1
2.708314217E0,1.171790883E-1,-7.147924304E-1,-7.110640407E-1
2.709528844E0,1.486043930E-1,-4.048005044E-1,-6.934871674E-1
2.712418025E0,6.285060197E-2,-2.530003190E-1,-5.763080716E-1
2.713652729E0,-1.230380461E-1,-3.355582952E-1,-4.431500137E-1
2.716102767E0,-2.253034264E-1,-5.587311983E-1,-4.889563918E-1
2.717807921E0,-1.890844405E-1,-9.933590889E-1,-6.625944972E-1
2.720198306E0,-1.752360016E-1,-1.184041500E0,-9.182579517E-1
2.721882421E0,-2.902845740E-1,-9.454222322E-1,-1.100950837E0
2.724369152E0,-4.463458061E-1,-6.913566589E-1,-1.028512836E0
2.726005614E0,-4.942827225E-1,-4.143878818E-1,-8.644620776E-1
2.728703075E0,-3.707120419E-1,-3.382214606E-1,-6.823018789E-1
2.730100383E0,-1.134506613E-1,-5.352953672E-1,-5.507417321E-1
2.732962525E0,2.103897333E-1,-7.877630591E-1,-5.566006899E-1
2.734233614E0,4.964132309E-1,-1.009338021E0,-6.514092088E-1
2.736636883E0,6.498113275E-1,-9.592706561E-1,-7.765777707E-1
2.738342190E0,6.098638773E-1,-7.046724558E-1,-8.101336360E-1
2.740732844E0,5.214469433E-1,-5.150553584E-1,-7.408914566E-1
2.742423075E0,5.773733258E-1,-4.804342687E-1,-7.137271762E-1
2.744896806E0,8.804410696E-1,-5.534048676E-1,-7.978830934E-1
2.746553921E0,9.347695708E-1,-6.173207760E-1,-7.440872192E-1
2.749401986E0,7.771103978E-1,-6.412891746E-1,-5.709817410E-1
2.750641460E0,6.141249537E-1,-6.673882008E-1,-4.202468395E-1
2.753505755E0,6.764429212E-1,-8.500810266E-1,-3.882888854E-1
2.755119190E0,9.374327064E-1,-1.288969994E0,-3.792341352E-1
2.757599563E0,1.095091820E0,-1.476456523E0,-3.733751774E-1
2.758943921E0,9.550095797E-1,-1.255946755E0,-3.781688809E-1
2.761669025E0,6.578007936E-1,-7.078682184E-1,-4.969458580E-1
2.762955690E0,3.962783813E-1,-9.374327213E-2,-8.372978568E-1
2.765772755E0,2.657834888E-1,2.759034932E-1,-1.218662500E0
2.767042613E0,1.571265012E-1,1.331580579E-1,-1.366201639E0
2.769876871E0,-8.628641814E-2,-1.454086006E-1,-1.245294094E0
2.771303421E0,-4.564658105E-1,-4.596616030E-1,-9.502158761E-1
2.773980871E0,-7.728493810E-1,-9.379653335E-1,-6.167881489E-1
2.775640498E0,-8.863000274E-1,-1.298557401E0,-4.628573954E-1
2.778072486E0,-8.362326026E-1,-1.511610270E0,-4.596616030E-1
2.779296960E0,-7.669904232E-1,-1.411475420E0,-5.251753926E-1
2.782141678E0,-7.510114312E-1,-1.161670923E0,-5.331648588E-1
2.783399690E0,-5.976133347E-1,-9.321063757E-1,-5.416869521E-1
2.786056113E0,-2.716424465E-1,-6.588660479E-1,-6.764429212E-1
2.787631921E0,1.571265012E-1,-2.892192900E-1,-8.495483994E-1
2.790349986E0,5.150553584E-1,-1.922802329E-1,-9.576727748E-1
2.791787806E0,8.175904751E-1,-3.020024598E-1,-9.230516553E-1
2.794453255E0,1.035969734E0,-4.122573435E-1,-8.394283652E-1
2.795766652E0,1.411475420E0,-8.910937309E-1,-6.231797338E-1
2.798210575E0,1.686846256E0,-1.272458434E0,-4.788363874E-1
2.799862460E0,1.808819056E0,-1.400822759E0,-4.095941782E-1
2.802251498E0,1.712412596E0,-1.164866686E0,-4.735100567E-1
2.803930037E0,1.445563912E0,-5.874933600E-1,-7.483482957E-1
2.806343229E0,1.068992853E0,7.829693705E-2,-1.095091820E0
2.808105306E0,6.817692518E-1,2.482066154E-1,-1.239967823E0
2.810780806E0,2.822950780E-1,-4.527373984E-2,-1.154746652E0
2.812153960E0,-1.709749401E-1,-4.042678475E-1,-9.661948681E-1
2.814997370E0,-5.938849449E-1,-1.003479123E0,-7.099987864E-1
2.816249960E0,-8.761799932E-1,-1.608016729E0,-4.937500656E-1
2.818701613E0,-9.629990458E-1,-1.895105481E0,-4.495415986E-1
2.820396037E0,-9.246495366E-1,-1.785915852E0,-5.070658922E-1
2.822960613E0,-9.246495366E-1,-1.543568254E0,-5.086637735E-1
2.824479575E0,-8.516789079E-1,-1.127582431E0,-5.480785370E-1
2.826957883E0,-5.928196907E-1,-5.267732739E-1,-7.659251690E-1
2.828662460E0,-1.651159972E-1,1.017327532E-1,-1.084971905E0
2.831437178E0,2.775014043E-1,1.155811921E-1,-1.179247737E0
2.832695575E0,5.161206126E-1,-1.177117229E-1,-1.051416039E0
2.835541293E0,5.906891227E-1,-2.178465873E-1,-9.353021979E-1
2.837299229E0,9.305084944E-1,-9.576727748E-1,-7.084008455E-1
2.839633293E0,1.104679227E0,-1.323058486E0,-6.167881489E-1
2.840852767E0,1.404551148E0,-1.800296903E0,-4.900216460E-1
2.843701640E0,1.524926066E0,-1.495098710E0,-5.464806557E-1
2.845095690E0,1.397626996E0,-6.551376581E-1,-7.994809747E-1
2.847804370E0,1.239435196E0,1.390170157E-1,-1.046622276E0
2.849114421E0,1.045024395E0,3.531351686E-1,-1.084439158E0
2.851907370E0,7.994809747E-1,1.294296384E-1,-9.837717414E-1
2.853350344E0,4.649879336E-1,-2.886866629E-1,-8.559399843E-1
2.856010563E0,6.764429063E-2,-9.390306473E-1,-7.036072016E-1
2.857591883E0,-3.350256681E-1,-1.479119658E0,-6.194512844E-1
2.860100524E0,-6.242449880E-1,-1.702292562E0,-6.050702333E-1
2.861319575E0,-7.925567627E-1,-1.853027463E0,-5.795038939E-1
2.864168716E0,-8.404936790E-1,-1.569134593E0,-6.380934119E-1
2.865538690E0,-7.946872711E-1,-9.747169614E-1,-7.520766854E-1
2.868109921E0,-6.338323355E-1,-4.069310129E-1,-8.213189244E-1
2.869631652E0,-3.387540877E-1,-1.033306494E-1,-8.335694075E-1
2.872376063E0,3.195793368E-3,-2.237055451E-2,-8.341020942E-1
2.873636921E0,2.657834888E-1,-7.403588295E-2,-8.250473142E-1
2.876506063E0,4.303668439E-1,-3.856257200E-1,-7.355651259E-1
2.878140460E0,7.739146352E-1,-1.342233181E0,-5.528722405E-1
2.880205536E0,9.661948681E-1,-1.605886221E0,-5.539374948E-1
2.881979921E0,1.344896317E0,-1.740642071E0,-6.578007936E-1
2.884204267E0,1.495098710E0,-1.190965652E0,-8.399610519E-1
2.885915921E0,1.339570045E0,-2.263686955E-1,-9.262474179E-1
2.888310960E0,1.056209683E0,3.488741219E-1,-8.431568146E-1
2.890102421E0,8.452873230E-1,4.016047120E-1,-7.440872192E-1
2.892647383E0,6.668555737E-1,-3.392867148E-1,-7.105314136E-1
2.894095498E0,3.968110085E-1,-9.875001311E-1,-6.705839634E-1
2.896942870E0,-4.793690145E-2,-1.422660708E0,-6.077333689E-1
2.898221036E0,-4.607268870E-1,-1.708684206E0,-4.857605994E-1
2.900696998E0,-6.231797338E-1,-1.796568513E0,-4.484763443E-1
2.902372152E0,-5.262406468E-1,-1.610147238E0,-5.454154015E-1
2.904806806E0,-3.542004228E-1,-1.170725584E0,-6.546050310E-1
2.906740152E0,-1.507349163E-1,-5.139901042E-1,-7.547398806E-1
2.909065075E0,6.977482140E-2,-1.193096191E-1,-7.494135499E-1
2.910726960E0,2.982740402E-1,1.464738697E-1,-7.691209316E-1
2.913381370E0,4.846953154E-1,2.103897333E-1,-7.968178391E-1
2.914883460E0,5.619270205E-1,-2.854908705E-1,-6.998787522E-1
2.917484716E0,6.434197426E-1,-9.752495885E-1,-6.311691999E-1
2.919100460E0,7.984157205E-1,-1.536643982E0,-7.052050829E-1
2.921578678E0,9.289106131E-1,-1.502022862E0,-9.241169095E-1
2.922807075E0,7.957525253E-1,-8.767126203E-1,-1.073786616E0
2.925646985E0,4.783037305E-1,-1.603222936E-1,-9.875001311E-1
2.926886613E0,2.189118415E-1,4.367584363E-2,-7.648598552E-1
2.929750024E0,2.141181529E-1,2.024002373E-2,-6.625944972E-1
2.931176267E0,3.579288721E-1,-3.898867965E-1,-6.487460732E-1
2.933853024E0,3.174487948E-1,-8.628641963E-1,-5.661880374E-1
2.935146613E0,-1.384843793E-2,-1.245294094E0,-3.818973005E-1
2.937956293E0,-3.643204570E-1,-1.494033456E0,-2.668487430E-1
2.939557613E0,-2.759034932E-1,-1.588309288E0,-4.969458580E-1
2.942049870E0,1.171790902E-2,-1.464738607E0,-7.137271762E-1
2.943304844E0,2.503371537E-1,-9.076052904E-1,-8.602010608E-1
2.946118832E0,4.021373391E-1,-3.392867148E-1,-8.282431364E-1
2.947340883E0,4.969458580E-1,1.954760253E-1,-7.472830415E-1
2.949985998E0,6.189186573E-1,4.985437691E-1,-7.307714224E-1
2.951466075E0,7.547398806E-1,1.352885813E-1,-6.727145314E-1
2.954324831E0,8.937568665E-1,-7.158577442E-1,-6.189186573E-1
2.955909113E0,9.992180467E-1,-1.416269064E0,-6.828345060E-1
2.958427639E0,9.614011645E-1,-1.499892354E0,-8.447546959E-1
2.959696536E0,7.004113793E-1,-9.629990458E-1,-9.661948681E-1
2.962121229E0,3.472762108E-1,-3.957457542E-1,-8.852347732E-1
2.963808690E0,1.134506613E-1,-1.842907518E-1,-6.977482438E-1
2.966157036E0,1.209075153E-1,-1.091896072E-1,-6.364955306E-1
2.967856459E0,1.901497096E-1,-2.540655732E-1,-6.285060048E-1
2.970260152E0,5.539375171E-2,-5.081311464E-1,-5.342301130E-1
2.971972267E0,-3.099919558E-1,-8.788431883E-1,-3.387540877E-1
2.974623190E0,-6.002765298E-1,-1.254348874E0,-2.609897852E-1
2.976066113E0,-5.656554103E-1,-1.462608099E0,-4.266384244E-1
2.978912293E0,-3.739078343E-1,-1.519067168E0,-6.530070901E-1
2.980210075E0,-1.533980817E-1,-1.257012010E0,-7.637946010E-1
2.982554729E0,6.870955974E-2,-8.761799932E-1,-7.297061682E-1
2.984280729E0,3.163835406E-1,-2.929477394E-1,-6.775081754E-1
2.986747383E0,5.544701219E-1,2.854908705E-1,-6.487460732E-1
2.988450036E0,7.046724558E-1,2.428802997E-1,-5.246427655E-1
2.990859806E0,9.614011645E-1,-5.273059011E-1,-5.528722405E-1
2.992510421E0,1.210673094E0,-1.098820329E0,-8.026767969E-1
2.995349447E0,1.273523688E0,-1.094559193E0,-1.086037159E0
2.996558844E0,1.000283360E0,-6.732471585E-1,-1.152083516E0
2.999451370E0,6.056028605E-1,-3.392867148E-1,-9.491506219E-1
3.001179536E0,3.605920076E-1,-1.560612470E-1,-7.211840153E-1
3.003543793E0,3.339604139E-1,-8.575379103E-2,-5.970807076E-1
3.004798729E0,3.131877482E-1,-2.977414131E-1,-4.862932265E-1
3.007611485E0,5.592638254E-2,-5.715143681E-1,-2.998719513E-1
3.008911998E0,-3.760383427E-1,-1.043426514E0,-9.534116834E-2
3.011714408E0,-6.689860821E-1,-1.297492146E0,-1.438107044E-1
3.013049690E0,-6.727145314E-1,-1.459412336E0,-3.637878001E-1
3.015816524E0,-5.752428174E-1,-1.451955438E0,-5.848301649E-1
3.017142421E0,-4.857605994E-1,-1.102548718E0,-6.631271243E-1
3.019919447E0,-3.387540877E-1,-7.302387953E-1,-6.034722924E-1
3.021523075E0,-5.752427876E-2,-1.848233789E-1,-5.438175201E-1
3.024012216E0,2.412824035E-1,1.278317273E-1,-4.623247683E-1
3.025372075E0,5.203816891E-1,-4.048004746E-2,-3.802994192E-1
3.028080100E0,8.788431883E-1,-4.564658105E-1,-4.761732221E-1
3.029345652E0,1.233043551E0,-7.984157205E-1,-7.595335841E-1
3.032182793E0,1.351287961E0,-6.434197426E-1,-1.054611802E0
3.033667921E0,1.081776023E0,-2.737729549E-1,-1.088700294E0
3.036286023E0,6.833671331E-1,-7.616640627E-2,-8.735168576E-1
3.037563152E0,4.207794666E-1,-6.817692518E-2,-6.572681665E-1
3.040388793E0,3.787015080E-1,-1.704423130E-1,-5.523396134E-1
3.041660844E0,2.924150825E-1,-6.764429212E-1,-3.456783295E-1
3.044097306E0,-5.592638254E-2,-1.083373904E0,-8.948221803E-2
3.045872498E0,-4.079962969E-1,-1.201085687E0,1.065264456E-3
3.048199459E0,-5.289037824E-1,-1.192030907E0,-1.464738697E-1
3.049896267E0,-5.134574771E-1,-1.133441329E0,-3.925499618E-1
3.052322690E0,-4.623247683E-1,-8.692557812E-1,-5.779059529E-1
3.054051729E0,-3.984089196E-1,-6.689860821E-1,-6.045376062E-1
3.056826023E0,-2.545982003E-1,-3.371562064E-1,-5.826996565E-1
3.058260690E0,-4.793690145E-2,-8.202536404E-2,-5.203816891E-1
3.060928908E0,1.470064968E-1,-2.130528986E-1,-3.877562582E-1
3.062234036E0,4.111920893E-1,-5.720469952E-1,-3.776362538E-1
3.064682690E0,8.127967715E-1,-8.639294505E-1,-5.912217498E-1
3.066457113E0,1.163268805E0,-7.568703890E-1,-9.171926975E-1
3.068801921E0,1.114799261E0,-3.291667104E-1,-1.008272767E0
3.070522690E0,7.611314654E-1,8.788431436E-2,-8.351673484E-1
3.072890882E0,4.245078862E-1,1.757686287E-1,-6.157228351E-1
3.074620229E0,3.360909224E-1,1.145159304E-1,-5.502091050E-1
3.077364908E0,3.802994192E-1,-3.195793331E-1,-5.310343504E-1
3.078706998E0,2.838929892E-1,-8.261125684E-1,-3.829625845E-1
3.081468216E0,-4.261057824E-3,-1.341700554E0,-1.518001854E-1
3.083104921E0,-1.709749401E-1,-1.433313370E0,-1.086569726E-1
3.085560677E0,-1.422128081E-1,-1.367266893E0,-1.731054783E-1
3.086828806E0,-5.752427876E-2,-1.030110717E0,-3.291667104E-1
3.089628485E0,-7.989482954E-3,-5.576659441E-1,-4.239752591E-1
3.090917882E0,8.255799860E-2,-1.944107562E-1,-5.150553584E-1
3.093731408E0,1.885518134E-1,4.474110901E-2,-5.912217498E-1
3.095018613E0,1.960086524E-1,-1.267664731E-1,-5.411543250E-1
3.097834946E0,2.332929224E-1,-5.576659441E-1,-5.235774517E-1
3.099107767E0,4.149205089E-1,-9.353021979E-1,-6.924219131E-1
3.101938485E0,5.858954787E-1,-7.941546440E-1,-9.885654449E-1
3.103993382E0,4.639226794E-1,-4.053331316E-1,-1.054611802E0
3.106030292E0,1.848233789E-1,-1.890844405E-1,-8.122641444E-1
3.107230575E0,3.781688958E-2,-8.468852192E-2,-5.981460214E-1
3.110098600E0,1.486043930E-1,-1.363538504E-1,-5.251753926E-1
3.111432613E0,3.089267015E-1,-4.042678475E-1,-4.708468914E-1
3.114145344E0,2.556634545E-1,-7.467503548E-1,-2.886866629E-1
3.115497306E0,3.195793368E-3,-1.097222447E0,-9.001484513E-2
3.118306908E0,-1.166464612E-1,-1.094026566E0,-1.390170157E-1
3.119929498E0,-3.621899337E-2,-1.186172009E0,-3.025351167E-1
3.122411139E0,7.030745596E-2,-1.064731836E0,-4.585963488E-1
3.123838882E0,1.043959185E-1,-8.250473142E-1,-5.060006380E-1
3.126106536E0,1.565938741E-1,-5.432848930E-1,-4.793690145E-1
3.127956190E0,2.748382390E-1,-2.242381722E-1,-4.687163532E-1
3.130257806E0,3.557983339E-1,-2.093244642E-1,-3.802994192E-1
3.131950382E0,4.165183902E-1,-4.873584807E-1,-3.163835406E-1
3.134370690E0,6.817692518E-1,-9.225190282E-1,-6.072007418E-1
3.136283536E0,8.074704409E-1,-7.339671850E-1,-9.395632744E-1
3.138698652E0,5.970807076E-1,-3.984089196E-1,-1.003479123E0
3.140185844E0,2.450108230E-1,-1.182443574E-1,-8.239820600E-1
3.142956292E0,8.628641814E-2,-2.343581803E-2,-6.748450398E-1
3.144239806E0,1.720402092E-1,-1.960086524E-1,-5.928196907E-1
3.146605536E0,3.142530024E-1,-4.703142643E-1,-5.262406468E-1
3.148349998E0,2.338255495E-1,-8.175904751E-1,-2.918824553E-1
3.150808229E0,-3.036003746E-2,-1.066329718E0,-6.391586363E-2
3.152738498E0,-1.805623323E-1,-1.030643344E0,-5.805691332E-2
3.154918652E0,-1.699096859E-1,-1.098287702E0,-1.896170676E-1
3.156592844E0,-1.193096191E-1,-9.805759192E-1,-3.637878001E-1
3.159395177E0,-1.139832959E-1,-8.948221207E-1,-4.170510471E-1
3.160647652E0,-7.563377917E-2,-6.604639888E-1,-4.378236830E-1
3.163497908E0,1.651159860E-2,-3.520699143E-1,-4.580637217E-1
3.165098306E0,7.456851006E-2,-3.600593805E-1,-3.808320463E-1
3.167590485E0,1.800296903E-1,-5.608617067E-1,-3.659183383E-1
3.168972652E0,4.138552547E-1,-7.329019308E-1,-5.352953672E-1
3.171658523E0,6.812366247E-1,-5.688512325E-1,-8.713863492E-1
3.172941498E0,7.046724558E-1,-2.269013226E-1,-1.018925428E0
3.175761561E0,4.857605994E-1,-1.246359423E-1,-8.213189244E-1
3.177363690E0,2.961435318E-1,-5.060006306E-2,-6.285060048E-1
3.179864754E0,3.403519988E-1,-7.563377917E-2,-5.374259353E-1
3.181457921E0,4.452805519E-1,-3.957457542E-1,-4.612595141E-1
3.183968138E0,2.838929892E-1,-9.502158761E-1,-1.917476058E-1
3.185982536E0,8.894958347E-2,-1.084439158E0,-8.628641814E-2
3.188059869E0,5.486112088E-2,-1.065797091E0,-1.480717659E-1
3.189258767E0,1.097222418E-1,-9.784454107E-1,-2.705771625E-1
3.192128023E0,1.193096191E-1,-7.808388472E-1,-3.302319944E-1
3.193482959E0,1.113201380E-1,-6.487460732E-1,-3.057309091E-1
3.196143575E0,1.592570394E-1,-3.717772961E-1,-3.307646215E-1
3.197553075E0,2.114549875E-1,-2.817624509E-1,-3.126551211E-1
3.200334677E0,2.050634027E-1,-4.873584807E-1,-2.556634545E-1
3.201594113E0,2.428802997E-1,-7.494135499E-1,-3.344930410E-1
3.204438446E0,3.904194236E-1,-8.170578480E-1,-6.178534031E-1
3.205811882E0,4.857605994E-1,-4.665858448E-1,-9.374327064E-1
3.208177882E0,3.185140789E-1,-1.161138266E-1,-9.512811303E-1
3.209975575E0,3.089267015E-2,6.657902896E-2,-7.329019308E-1
3.212192959E0,-7.989483327E-2,1.896170676E-1,-5.795038939E-1
3.213934498E0,6.924218964E-3,-4.154531285E-2,-4.916195571E-1
3.216359536E0,1.123853996E-1,-3.989415467E-1,-3.941478431E-1
3.218158882E0,4.261057824E-2,-9.587380290E-1,-1.699096859E-1
3.220877561E0,-7.989483327E-2,-1.151550889E0,-5.858954415E-2
3.222274652E0,-4.740426689E-2,-1.122788787E0,-9.534116834E-2
3.224981138E0,8.255799860E-2,-1.037034988E0,-1.699096859E-1
3.226260459E0,1.816275865E-1,-7.318366766E-1,-2.199771106E-1
3.228700344E0,2.759034932E-1,-3.185140789E-1,-2.082591951E-1
3.230366767E0,3.973436356E-1,-1.203748807E-1,-2.215750068E-1
3.233108690E0,4.506068528E-1,-2.817624509E-1,-1.555286050E-1
3.234461305E0,4.644553065E-1,-5.390238166E-1,-1.496696621E-1
3.237169729E0,5.432848930E-1,-8.005462289E-1,-3.057309091E-1
3.238649959E0,6.780408025E-1,-7.483482957E-1,-6.285060048E-1
3.241419600E0,6.886934638E-1,-4.197141826E-1,-8.309062719E-1
3.242710998E0,4.751079381E-1,-1.965412945E-1,-7.201187611E-1
3.245522907E0,2.535329461E-1,1.086569726E-1,-5.491438508E-1
3.247105959E0,2.093244642E-1,2.055960447E-1,-4.394215941E-1
3.249614369E0,2.460760921E-1,7.723167539E-2,-3.898867965E-1
3.250926729E0,1.842907518E-1,-3.243730366E-1,-2.327602804E-1
3.253683446E0,-4.420847446E-2,-8.341020942E-1,-4.846953228E-2
3.255037652E0,-2.114549875E-1,-9.198558331E-1,-5.858954415E-2
3.257787176E0,-2.189118415E-1,-1.058872819E0,-1.155811921E-1
3.259148498E0,-1.699096859E-1,-9.917612076E-1,-1.661812514E-1
3.261890561E0,-1.374191195E-1,-7.749798894E-1,-1.379517466E-1
3.263243421E0,-9.374327213E-2,-4.697816372E-1,-7.510114461E-2
3.265993600E0,-2.663161140E-3,-1.949433982E-1,-2.343581803E-2
3.267614959E0,5.965480953E-2,-3.211772442E-1,6.231797114E-2
3.270084253E0,6.764429063E-2,-4.388889670E-1,2.822950855E-2
3.271331229E0,1.502022892E-1,-6.418218613E-1,-2.178465873E-1
3.274152946E0,3.099919558E-1,-5.661880374E-1,-6.199839115E-1
3.275946998E0,3.296993375E-1,-3.531351686E-1,-8.197209835E-1
3.278144729E0,1.203748807E-1,-1.661812514E-1,-6.961503029E-1
3.279548305E0,2.663161140E-3,1.837581247E-1,-4.261057973E-1
3.282359446E0,1.672465205E-1,2.663161233E-2,-2.892192900E-1
3.283670344E0,3.105245829E-1,-8.202536404E-2,-1.970739216E-1
3.286462869E0,2.380866110E-1,-6.066681147E-1,2.822950855E-2
3.287770959E0,8.149272949E-2,-7.201187611E-1,7.030745596E-2
3.290245190E0,1.651159860E-2,-7.233145833E-1,-3.355583176E-2
3.291957844E0,4.154531285E-2,-7.845672965E-1,-1.283643693E-1
3.294252921E0,7.350324839E-2,-7.110640407E-1,-1.539307088E-1
3.296002767E0,1.571265012E-1,-6.077333689E-1,-9.906959534E-2
3.298459267E0,3.094593287E-1,-4.287689328E-1,-2.503371425E-2
3.300184267E0,4.026699662E-1,-3.403519988E-1,1.001348570E-1
3.302796382E0,4.420847595E-1,-4.154531360E-1,1.789644361E-1
3.304363536E0,5.273059011E-1,-5.427522659E-1,5.592638254E-2
3.306939907E0,6.572681665E-1,-4.255731404E-1,-3.398193717E-1
3.308244767E0,6.966829300E-1,-9.800432622E-2,-6.924219131E-1
3.310630382E0,4.740426838E-1,-4.580637068E-2,-6.551376581E-1
3.312355344E0,1.725728363E-1,9.161274135E-2,-4.953479767E-1
3.314777882E0,8.096009493E-2,1.821602285E-1,-3.771036267E-1
3.316439459E0,1.331580579E-1,-9.161274135E-2,-2.476739883E-1
3.319006998E0,9.374327213E-2,-2.908172011E-1,-1.326254308E-1
3.320591113E0,-9.054747969E-2,-6.322344542E-1,3.302319720E-2
3.323375215E0,-2.609897852E-1,-6.791061163E-1,5.273059011E-2
3.324886305E0,-3.286340833E-1,-5.534048676E-1,-7.563377917E-2
3.327477984E0,-2.929477394E-1,-5.805691481E-1,-9.161274135E-2
3.329187652E0,-2.940129936E-1,-4.649879336E-1,-1.544633508E-2
3.331570176E0,-2.663161159E-1,-2.114549875E-1,5.060006306E-2
3.332798998E0,-2.199771106E-1,-2.588592768E-1,2.082591951E-1
3.335638368E0,-1.917476058E-1,-5.033374429E-1,3.211772442E-1
3.336864805E0,-9.161274135E-2,-7.483482957E-1,2.412824035E-1
3.339741561E0,8.522115648E-2,-7.249124646E-1,-1.107875034E-1
3.341170921E0,2.604571581E-1,-3.089267015E-1,-4.990763962E-1
3.343844676E0,2.689792812E-1,-9.747169912E-2,-5.613943934E-1
3.345157075E0,1.629854590E-1,1.049285457E-1,-4.032025933E-1
3.347947522E0,1.363538504E-1,3.222424984E-1,-2.849582434E-1
3.349571959E0,2.593919039E-1,2.918824553E-1,-2.359560728E-1
3.352038638E0,3.403519988E-1,-6.444849819E-2,-1.400822699E-1
3.353277190E0,2.860234976E-1,-5.518069863E-1,-3.408846259E-2
3.356106022E0,1.784317940E-1,-7.009440064E-1,-6.657902896E-2
3.357596613E0,1.012001261E-1,-6.364955306E-1,-1.619201899E-1
3.360162036E0,7.616640627E-2,-5.997439027E-1,-1.352885813E-1
3.361573575E0,5.273059011E-2,-5.779059529E-1,6.924218964E-3
3.364310138E0,9.480853379E-2,-3.371562064E-1,1.123853996E-1
3.365587959E0,2.013349831E-1,-3.360909224E-1,2.684466541E-1
3.368439676E0,2.476739883E-1,-6.135923266E-1,4.548679292E-1
3.369799998E0,2.673813701E-1,-7.685883045E-1,4.340952635E-1
3.372149498E0,3.147856593E-1,-8.335694075E-1,1.651159972E-1
3.373880805E0,3.707120419E-1,-4.878911078E-1,-3.147856593E-1
3.376234767E0,2.924150825E-1,-3.355583176E-2,-6.269081235E-1
3.377986652E0,1.182443574E-1,1.645833552E-1,-4.974785149E-1
3.380361844E0,5.858954508E-3,4.058657587E-1,-3.648530841E-1
3.382073421E0,3.675162420E-2,3.094593287E-1,-2.226402760E-1
3.384661690E0,5.912217870E-2,-1.512675583E-1,-2.450108156E-2
3.386224382E0,-4.793690052E-3,-6.663229465E-1,9.640643001E-2
3.388981061E0,-7.190535218E-2,-8.532768488E-1,3.834952042E-2
3.390264613E0,-1.464738697E-1,-8.490157723E-1,-8.628641814E-2
3.392653305E0,-2.194444835E-1,-7.068029642E-1,-1.347559541E-1
3.394365728E0,-2.620550692E-1,-6.029396653E-1,-5.486112088E-2
3.396743382E0,-2.167813182E-1,-2.833603323E-1,-6.924218964E-3
3.398417344E0,-7.936219871E-2,-1.576591432E-1,9.747169912E-2
3.400905190E0,2.716424316E-2,-4.575310946E-1,2.988066673E-1
3.402553882E0,1.342233270E-1,-6.625944972E-1,3.227751255E-1
3.405416022E0,3.531351686E-1,-7.760451436E-1,8.255799860E-2
3.406756767E0,6.301039457E-1,-6.024070382E-1,-3.110572100E-1
3.409519137E0,7.568703890E-1,-3.552657068E-1,-5.054680109E-1
3.411114498E0,5.747101903E-1,1.033306494E-1,-3.185140789E-1
3.413612099E0,4.900216460E-1,2.620550692E-1,-2.370213419E-1
3.414978459E0,3.552657068E-1,4.367584288E-1,-1.139832959E-1
3.417679637E0,2.503371537E-1,3.067961633E-1,-4.048004746E-2
3.418919959E0,6.711166352E-2,-2.934803665E-1,5.219795927E-2
3.421783099E0,-9.853696078E-2,-7.494135499E-1,-1.597896591E-2
3.423020190E0,-2.620550692E-1,-1.015729666E0,-2.024002522E-1
3.425886945E0,-3.382214606E-1,-9.395632744E-1,-1.603222936E-1
3.427135151E0,-3.712446690E-1,-8.122641444E-1,3.834952042E-2
3.429992022E0,-2.780340314E-1,-4.207794666E-1,1.763012707E-1
3.431616075E0,-7.456851006E-2,-2.434129268E-1,3.217098713E-1
3.434084368E0,9.427590668E-2,-5.038700700E-1,5.006743073E-1
3.435259728E0,2.636529505E-1,-7.824367285E-1,4.697816372E-1
3.438153368E0,4.921521842E-1,-8.234494328E-1,1.166464612E-1
3.439451267E0,7.174556255E-1,-5.049353242E-1,-3.765709996E-1
3.442233651E0,7.217166424E-1,-2.844256163E-1,-5.448827744E-1
3.443554844E0,5.480785370E-1,-6.231797114E-2,-4.106594622E-1
3.446360753E0,3.930825889E-1,2.210423797E-1,-2.764361203E-1
3.448275190E0,4.037352204E-1,3.664509654E-1,-2.237055302E-1
3.450464791E0,4.335626364E-1,7.456851006E-2,-9.534116834E-2
3.451749536E0,2.460760921E-1,-3.536677957E-1,4.580637068E-2
3.454177344E0,-5.326322280E-3,-5.581985712E-1,4.261057824E-2
3.455882767E0,-2.444781959E-1,-6.546050310E-1,-2.556634694E-2
3.458246421E0,-4.756405652E-1,-6.327670813E-1,-1.012001261E-1
3.459972036E0,-5.795038939E-1,-7.435545921E-1,-3.621899337E-2
3.462415767E0,-5.550028086E-1,-8.026767969E-1,8.096009493E-2
3.464080767E0,-4.250405133E-1,-6.418218613E-1,1.890844405E-1
3.466755459E0,-2.982740402E-1,-7.494135499E-1,4.159857631E-1
3.468194075E0,-1.960086524E-1,-9.150621891E-1,5.443501472E-1
3.471008906E0,1.209075153E-1,-7.062703371E-1,1.283643693E-1
3.472303305E0,4.048005044E-1,-2.956108749E-1,-3.483414650E-1
3.474709651E0,5.065332651E-1,-1.480717659E-1,-5.305017233E-1
3.476488075E0,4.191815555E-1,2.077265643E-2,-4.511395097E-1
3.478836844E0,2.982740402E-1,2.567287385E-1,-3.265035450E-1
3.480520075E0,3.121224940E-1,3.360909224E-1,-2.370213419E-1
3.483009075E0,3.723099232E-1,-9.587380290E-2,-1.704423130E-2
3.484645882E0,3.632551730E-1,-6.615292430E-1,1.619201899E-1
3.487449522E0,3.600593805E-1,-8.527442217E-1,1.549959779E-1
3.488736382E0,3.366235793E-1,-9.209211469E-1,1.001348570E-1
3.491553406E0,2.625876963E-1,-7.456851006E-1,6.870955974E-2
3.493455190E0,1.693770438E-1,-5.864281058E-1,1.422128081E-1
3.495646522E0,1.326254308E-1,-3.265035450E-1,1.933455020E-1
3.496913036E0,1.704423130E-1,-2.242381722E-1,2.620550692E-1
3.499715676E0,1.853560209E-1,-5.262406468E-1,4.095941782E-1
3.501061498E0,1.944107562E-1,-7.840346098E-1,4.063983858E-1
3.503820099E0,2.455434501E-1,-7.787083387E-1,1.470064968E-1
3.505452767E0,3.014698327E-1,-5.821670294E-1,-1.933455020E-1
3.507924406E0,2.561961114E-1,-4.138552547E-1,-3.233077526E-1
3.509197921E0,1.139832959E-1,-2.514024079E-1,-2.577939928E-1
3.512027637E0,4.048004746E-2,0.000000000E0,-1.794970632E-1
3.513646074E0,1.027980223E-1,1.150485575E-1,-7.030745596E-2
3.516119560E0,9.054747969E-2,-4.740426689E-2,2.769687586E-2
3.517319151E0,-1.970739290E-2,-4.101268053E-1,1.805623323E-1
3.520188445E0,-1.443433315E-1,-4.942827225E-1,4.048004746E-2
3.521410921E0,-1.555286050E-1,-5.629922748E-1,-8.096009493E-2
3.524069882E0,-1.619201899E-1,-5.896238685E-1,-6.657902896E-2
3.525882574E0,-1.299622655E-1,-6.077333689E-1,8.628641814E-2
3.528396175E0,-1.438106969E-2,-4.362258017E-1,2.620550692E-1
3.529908805E0,1.145159304E-1,-4.458131790E-1,5.182511806E-1
3.532500445E0,1.842907518E-1,-6.562029123E-1,7.307714224E-1
3.533943036E0,3.041329980E-1,-7.760451436E-1,6.386260390E-1
3.536215344E0,5.608617067E-1,-6.599313021E-1,1.992044598E-1
3.537900459E0,7.552725077E-1,-4.042678475E-1,-2.439455539E-1
3.540476998E0,6.151902080E-1,-1.970739216E-1,-3.504720032E-1
3.542092959E0,3.174487948E-1,2.002697140E-1,-2.796319127E-1
3.544437651E0,1.027980223E-1,4.143878818E-1,-1.837581247E-1
3.546872560E0,6.072007492E-2,3.941478431E-1,-9.853696078E-2
3.548916574E0,2.130528912E-2,-1.448759735E-1,1.065264493E-1
3.550237382E0,-1.757686287E-1,-5.581985712E-1,2.577939928E-1
3.553045560E0,-3.861583769E-1,-7.206513882E-1,2.732403278E-1
3.554405267E0,-4.996090233E-1,-8.005462289E-1,2.173139453E-1
3.556822151E0,-5.022721887E-1,-7.744472623E-1,1.683117896E-1
3.558460113E0,-4.649879336E-1,-6.988134980E-1,2.050634027E-1
3.560850459E0,-3.888215125E-1,-3.707120419E-1,2.727077007E-1
3.562733498E0,-2.583266199E-1,-2.322276533E-1,4.399542212E-1
3.565244767E0,-6.072007492E-2,-4.431500137E-1,6.407565475E-1
3.566722228E0,1.747033745E-1,-4.804342687E-1,4.495415986E-1
3.569486983E0,4.575310946E-1,-3.733751774E-1,5.539375171E-2
3.570758690E0,6.056028605E-1,-2.450108230E-1,-2.055960447E-1
3.573589752E0,5.225121975E-1,-1.470064968E-1,-2.013349831E-1
3.575341382E0,3.941478431E-1,1.326254308E-1,-1.091896072E-1
3.577683868E0,3.547330499E-1,3.451456726E-1,-1.544633508E-2
3.579072959E0,3.446130455E-1,2.759034932E-1,1.592570394E-1
3.581752098E0,2.103897333E-1,-1.438107044E-1,3.888215125E-1
3.583059728E0,2.822950855E-2,-3.302319944E-1,4.218447208E-1
3.585856060E0,-1.331580579E-1,-4.149205089E-1,3.312972486E-1
3.587058421E0,-3.398193717E-1,-4.745753109E-1,2.764361203E-1
3.589960021E0,-5.241101384E-1,-5.134574771E-1,3.281014562E-1
3.591212728E0,-5.874933600E-1,-4.665858448E-1,4.021373391E-1
3.594063560E0,-4.633900523E-1,-4.585963488E-1,5.060006380E-1
3.595770382E0,-2.657834888E-1,-6.950850487E-1,6.833671331E-1
3.598156137E0,-9.747169912E-2,-8.223841786E-1,7.419567108E-1
3.599364651E0,1.118527651E-1,-5.960154533E-1,4.932174385E-1
3.602224675E0,3.829625845E-1,-2.876213938E-2,1.864212751E-2
3.603493882E0,5.438175201E-1,3.382214606E-1,-2.551308274E-1
3.606107805E0,4.942827225E-1,4.346278906E-1,-1.906823367E-1
3.607602190E0,3.717772961E-1,6.567355394E-1,-7.723167539E-2
3.610431829E0,3.664509654E-1,5.725796223E-1,8.894958347E-2
3.611720728E0,3.973436356E-1,1.315601617E-1,3.371562064E-1
3.614535406E0,3.083940744E-1,-4.655205607E-1,6.034722924E-1
3.615828113E0,9.001484513E-2,-7.355651259E-1,6.796387434E-1
3.618292190E0,-1.757686399E-2,-6.636597514E-1,5.848301649E-1
3.620031421E0,-1.411475390E-1,-4.202468395E-1,5.017395616E-1
3.622303651E0,-2.407497615E-1,-1.560612470E-1,5.086637735E-1
3.624044267E0,-2.966761589E-1,1.390170157E-1,5.645901561E-1
3.626496959E0,-3.243730366E-1,1.992044598E-1,6.870955825E-1
3.628174497E0,-3.755057156E-1,-1.187769845E-1,8.282431364E-1
3.630792728E0,-3.542004228E-1,-3.845604658E-1,7.478156686E-1
3.632198267E0,-1.949433982E-1,-4.836300611E-1,4.213120937E-1
3.635082444E0,-5.858954508E-3,-2.764361203E-1,7.882957160E-2
3.636350190E0,2.609897964E-2,-1.235706806E-1,7.350324839E-2
3.638792844E0,-4.367584363E-2,1.177117229E-1,2.966761589E-1
3.640419459E0,2.237055451E-2,4.048005044E-1,4.825648069E-1
3.643003651E0,2.295644879E-1,4.814995229E-1,5.672533512E-1
3.644556728E0,3.573962152E-1,2.332929224E-1,6.849650741E-1
3.647061767E0,2.657834888E-1,-6.498113275E-2,7.307714224E-1
3.648666844E0,1.347559541E-1,-4.687163606E-2,5.800365210E-1
3.651521752E0,2.929477207E-2,-1.358212233E-1,4.388889670E-1
3.652787036E0,-3.036003746E-2,-1.656486243E-1,3.755057156E-1
3.655625713E0,3.195793368E-3,-2.721750736E-1,4.644553065E-1
3.657466228E0,1.938781291E-1,-1.544633508E-2,6.892260909E-1
3.659719175E0,2.295644879E-1,-3.195793182E-2,1.001348615E0
3.660909651E0,1.528654546E-1,-1.214401498E-1,1.208009839E0
3.663788713E0,1.869539171E-1,-1.001348570E-1,1.033839107E0
3.665197536E0,3.328951299E-1,2.237055451E-2,5.491438508E-1
3.667892444E0,3.957457542E-1,9.427590668E-2,1.805623323E-1
3.669171690E0,1.539307088E-1,9.480853379E-2,1.395496428E-1
3.671996252E0,-1.970739216E-1,4.021373391E-1,1.896170676E-1
3.673337459E0,-4.266384244E-1,5.693838596E-1,2.785666585E-1
3.676100175E0,-5.107942820E-1,5.038700700E-1,3.813646734E-1
3.677747497E0,-5.603290796E-1,1.171790883E-1,4.905542731E-1
3.680192944E0,-6.823018789E-1,1.864212751E-2,4.862932265E-1
3.681435613E0,-8.463526368E-1,1.438106969E-2,4.591289759E-1
3.684261406E0,-1.046622276E0,8.522115648E-3,4.735100567E-1
3.685633151E0,-1.172856212E0,2.343581803E-2,4.916195571E-1
3.688324844E0,-1.090298176E0,-9.800432622E-2,5.283711553E-1
3.689616690E0,-8.772453070E-1,-1.518001854E-1,6.050702333E-1
3.692468867E0,-6.578007936E-1,-2.173139453E-1,7.930893898E-1
3.693687421E0,-4.873584807E-1,-3.776362538E-1,9.747169614E-1
3.696572521E0,-2.657834888E-1,-2.993393242E-1,9.081379771E-1
3.697818228E0,6.178534031E-2,2.663161233E-2,5.683186054E-1
3.700322574E0,3.632551730E-1,3.147856593E-1,2.625876963E-1
3.702040497E0,4.639226794E-1,4.607268870E-1,1.810949594E-1
3.704488844E0,4.101268053E-1,6.881608367E-1,2.215750068E-1
3.706074190E0,3.893541694E-1,7.733820081E-1,3.030677438E-1
3.708580305E0,3.957457542E-1,3.494067490E-1,5.965480804E-1
3.710152536E0,2.668487430E-1,5.326322280E-4,7.275756001E-1
3.712808497E0,1.166464612E-1,-7.350324839E-2,6.764429212E-1
3.714346728E0,-1.027980223E-1,-4.953479767E-2,6.018744111E-1
3.717113636E0,-3.936152160E-1,1.874865443E-1,5.587311983E-1
3.718481767E0,-6.444849968E-1,2.450108230E-1,6.306365728E-1
3.720838997E0,-7.201187611E-1,3.163835406E-1,7.249124646E-1
3.722470305E0,-6.578007936E-1,9.534116834E-2,9.097358584E-1
3.725125690E0,-6.524744630E-1,-2.476739883E-1,1.143028736E0
3.726651805E0,-6.684534550E-1,-3.174487948E-1,1.164334059E0
3.729119920E0,-5.645901561E-1,-1.198422536E-1,8.538094759E-1
3.730702382E0,-3.664509654E-1,1.747033745E-1,4.404868484E-1
3.733551021E0,-2.359560728E-1,3.531351686E-1,2.354234457E-1
3.734866267E0,-2.577939928E-1,5.550028086E-1,2.684466541E-1
3.737653636E0,-3.131877482E-1,8.703210354E-1,3.749730885E-1
3.739217651E0,-2.673813701E-1,9.693906307E-1,4.921521842E-1
3.741747444E0,-1.869539171E-1,6.391586661E-1,7.041398287E-1
3.742959728E0,-1.800296903E-1,2.423476577E-1,8.287757635E-1
3.745815482E0,-1.400822699E-1,2.609897964E-2,8.287757635E-1
3.747045651E0,-9.161274135E-2,-4.580637068E-2,7.797735929E-1
3.749918290E0,-5.006742850E-2,2.663161233E-2,7.941546440E-1
3.751168613E0,2.982740477E-2,-3.728425596E-3,9.326390028E-1
3.754020367E0,1.826928556E-1,2.157160491E-1,1.033839107E0
3.755309844E0,3.243730366E-1,3.227751255E-1,1.169660330E0
3.758123328E0,3.036003709E-1,2.093244642E-1,1.304948926E0
3.759748497E0,3.281014562E-1,3.158509135E-1,1.008805394E0
3.762213559E0,4.122573435E-1,4.378236830E-1,5.699164867E-1
3.763422190E0,3.339604139E-1,4.974785149E-1,3.456783295E-1
3.766281059E0,3.728425503E-2,6.503439546E-1,3.478088379E-1
3.767530805E0,-3.078614175E-1,7.803062201E-1,4.394215941E-1
3.770229459E0,-5.241101384E-1,7.765777707E-1,6.013417840E-1
3.771781344E0,-6.641923785E-1,5.560680628E-1,8.159925938E-1
3.774486867E0,-8.751147389E-1,2.332929224E-1,9.970875382E-1
3.775724036E0,-1.122788787E0,1.677791476E-1,9.981527925E-1
3.778589521E0,-1.300687909E0,6.178534031E-2,9.251821637E-1
3.779884074E0,-1.426389098E0,9.321063757E-2,7.898935676E-1
3.782271767E0,-1.463140726E0,1.784317940E-1,6.892260909E-1
3.783954305E0,-1.376854300E0,2.727077007E-1,6.689860821E-1
3.786517305E0,-1.125451922E0,3.504720032E-1,7.760451436E-1
3.788067113E0,-7.542072535E-1,1.629854590E-1,1.013599157E0
3.790532959E0,-2.663161159E-1,-6.231797114E-2,1.148887753E0
3.792214382E0,3.051982522E-1,4.261057824E-2,9.837717414E-1
3.794885382E0,8.404936790E-1,3.158509135E-1,6.881608367E-1
3.796241074E0,1.154214025E0,4.676510990E-1,5.656554103E-1
3.799130790E0,1.137702465E0,6.737797856E-1,5.954828262E-1
3.800385844E0,9.699232578E-1,9.779127836E-1,5.997439027E-1
3.802761767E0,7.211840153E-1,8.708537221E-1,5.880259871E-1
3.804492228E0,5.273059011E-1,3.414172530E-1,6.391586661E-1
3.807054805E0,2.620550692E-1,-6.391586363E-2,6.013417840E-1
3.808653844E0,-3.941478580E-2,-8.468852192E-2,5.028048158E-1
3.811101190E0,-3.637878001E-1,2.663161233E-2,5.006743073E-1
3.812711074E0,-6.711165905E-1,1.416801661E-1,6.418218613E-1
3.815568482E0,-9.358348250E-1,3.115898669E-1,7.898935676E-1
3.816865497E0,-1.056742311E0,4.287689328E-1,8.921589851E-1
3.819671367E0,-1.065797091E0,8.681905270E-2,1.037567616E0
3.821275613E0,-1.073786616E0,-3.440804183E-1,1.099885583E0
3.823763020E0,-1.043959141E0,-3.989415467E-1,8.783105612E-1
3.824974267E0,-9.736517072E-1,-1.251685768E-1,4.724447727E-1
3.827832174E0,-8.271778226E-1,2.024002522E-1,1.763012707E-1
3.829211613E0,-6.476807594E-1,3.169161677E-1,1.336906850E-1
3.831935097E0,-4.106594622E-1,5.368933082E-1,1.917476058E-1
3.833189305E0,-9.214537591E-2,7.558051348E-1,2.700445354E-1
3.836039328E0,2.370213419E-1,7.994809747E-1,4.261057973E-1
3.837264190E0,3.898867965E-1,4.900216460E-1,6.860303283E-1
3.840143520E0,3.872236311E-1,3.222424984E-1,7.835019827E-1
3.841847920E0,3.291667104E-1,1.246359423E-1,6.375607848E-1
3.844235559E0,2.801645398E-1,3.515372798E-2,5.842975378E-1
3.845397997E0,1.512675583E-1,-1.603222936E-1,5.592638254E-1
3.848304290E0,1.917476021E-2,-2.434129268E-1,5.890912414E-1
3.849528305E0,-4.527373984E-2,-5.539375171E-2,6.258428693E-1
3.852209920E0,-7.882957160E-2,-3.195793182E-2,7.909588814E-1
3.853731843E0,-7.137271762E-2,-1.150485575E-1,9.390306473E-1
3.856510443E0,5.486112088E-2,2.663161233E-2,6.881608367E-1
3.857903036E0,2.332929224E-1,3.462109566E-1,3.046656251E-1
3.860641136E0,2.194444835E-1,3.755057156E-1,1.949433982E-1
3.861938805E0,-2.130528912E-3,4.740426838E-1,2.593919039E-1
3.864455382E0,-2.759034932E-1,6.700513363E-1,3.121224940E-1
3.866019267E0,-4.857605994E-1,6.641923785E-1,3.936152160E-1
3.868396651E0,-6.524744630E-1,3.557983339E-1,5.305017233E-1
3.870170267E0,-8.202536106E-1,-6.231797114E-2,6.258428693E-1
3.872586920E0,-9.187905788E-1,-1.986718178E-1,5.720469952E-1
3.874241574E0,-9.629990458E-1,-2.418150306E-1,5.044026971E-1
3.876884882E0,-9.432916641E-1,-1.475391239E-1,5.054680109E-1
3.878321536E0,-8.772453070E-1,-8.468852192E-2,5.944175720E-1
3.881188597E0,-7.334345579E-1,2.551308274E-1,6.183860302E-1
3.882435651E0,-5.352953672E-1,3.941478431E-1,6.950850487E-1
3.884839651E0,-3.110572100E-1,1.251685768E-1,8.788431883E-1
3.886568805E0,-3.834952042E-2,-1.171790883E-1,8.804410696E-1
3.889058382E0,2.790992856E-1,-2.343581803E-2,6.087986231E-1
3.890715113E0,5.656554103E-1,1.789644361E-1,3.249056637E-1
3.893157113E0,6.833671331E-1,1.320927888E-1,3.296993375E-1
3.894806690E0,6.322344542E-1,2.934803665E-1,4.538026452E-1
3.897631136E0,5.555354357E-1,5.123922229E-1,6.093312502E-1
3.898860882E0,4.889563918E-1,4.751079381E-1,6.865629554E-1
3.901734982E0,3.169161677E-1,1.294296384E-1,7.515440583E-1
3.903301190E0,8.948221803E-2,-2.130528912E-3,6.348975897E-1
3.905830636E0,-1.917476058E-1,-1.171790902E-2,4.468784332E-1
3.907053651E0,-5.315669775E-1,1.006674916E-1,2.844256163E-1
3.909899597E0,-8.239820600E-1,1.315601617E-1,2.593919039E-1
3.911147574E0,-9.507485032E-1,6.338323653E-2,3.067961633E-1
3.914003059E0,-8.692557812E-1,9.587380290E-2,3.941478431E-1
3.915250343E0,-7.803062201E-1,-1.033306494E-1,6.625944972E-1
3.918106866E0,-7.893609405E-1,-2.332929224E-1,9.155948162E-1
3.919325767E0,-7.600662112E-1,-1.193096191E-1,8.740494847E-1
3.922211020E0,-6.183860302E-1,1.187769845E-1,5.310343504E-1
3.923813920E0,-4.522047639E-1,2.178465873E-1,2.284992188E-1
3.926302020E0,-4.516721368E-1,1.001348570E-1,1.235706806E-1
3.927476343E0,-4.889563918E-1,2.540655732E-1,5.752427876E-2
3.930370097E0,-4.277036786E-1,3.142530024E-1,6.604639441E-2
3.931612959E0,-2.545982003E-1,2.306297570E-1,1.922802329E-1
3.934241228E0,-1.262338310E-1,-2.503371425E-2,3.787015080E-1
3.935733382E0,2.183792181E-2,-8.255799860E-2,4.388889670E-1
3.938576789E0,1.565938741E-1,-1.017327532E-1,4.234426320E-1
3.939930497E0,1.571265012E-1,9.321063757E-2,3.659183383E-1
3.942680520E0,6.178534031E-2,7.137271762E-2,4.165183902E-1
3.944094920E0,1.491370238E-2,1.597896591E-2,4.452805519E-1
3.946346343E0,1.667138934E-1,-2.151834220E-1,5.107942820E-1
3.948098651E0,2.146507949E-1,-6.301039457E-1,6.982808709E-1
3.950426420E0,2.790992856E-1,-6.231797338E-1,6.940197945E-1
3.952181920E0,3.989415467E-1,-3.281014562E-1,4.532700181E-1
3.954592382E0,4.830974340E-1,1.182443574E-1,1.880191714E-1
3.956399613E0,4.282363057E-1,2.860234976E-1,1.470064968E-1
3.958891728E0,3.025351167E-1,4.681837261E-1,1.608549356E-1
3.960334420E0,2.221076339E-1,5.837649107E-1,1.549959779E-1
3.963225828E0,1.118527651E-1,4.538026452E-1,2.231729031E-1
3.964463613E0,-1.486043930E-1,1.027980223E-1,3.952131271E-1
3.966878536E0,-4.644553065E-1,-2.077265680E-1,4.751079381E-1
3.968612074E0,-6.684534550E-1,-2.993393242E-1,3.984089196E-1
3.971007228E0,-8.143946528E-1,-3.360909224E-1,3.073287904E-1
3.972808843E0,-9.267801046E-1,-2.306297570E-1,2.934803665E-1
3.975369228E0,-9.747169614E-1,-1.177117229E-1,3.936152160E-1
3.976843420E0,-8.948221207E-1,7.403588295E-2,5.070658922E-1
3.979665366E0,-6.929545403E-1,1.810949668E-2,6.823018789E-1
3.981229536E0,-5.028048158E-1,-2.274339646E-1,8.463526368E-1
3.983779328E0,-2.759034932E-1,-2.748382390E-1,7.515440583E-1
3.985445343E0,1.667138934E-1,1.374191195E-1,2.039981484E-1
3.987872328E0,2.977414131E-1,2.423476577E-1,7.669904083E-2
3.989170882E0,4.554005563E-1,1.896170676E-1,7.616640627E-2
3.991940251E0,4.894890189E-1,4.117247164E-1,1.741707325E-1
3.993162766E0,5.326322317E-1,6.892260909E-1,3.962783813E-1
3.996043904E0,5.065332651E-1,4.362258017E-1,6.402239203E-1
3.997311190E0,3.930825889E-1,4.740426689E-2,7.707188129E-1
4.000147058E0,2.370213419E-1,-1.027980223E-1,6.615292430E-1
4.001371036E0,4.101268202E-2,-1.693770438E-1,4.894890189E-1
4.004250366E0,-2.146507949E-1,-1.613875628E-1,3.685815036E-1
4.005832074E0,-4.601942301E-1,-2.716424316E-2,3.259709179E-1
4.008342481E0,-6.162554622E-1,2.253034264E-1,3.318298757E-1
4.009627459E0,-6.332997084E-1,2.982740402E-1,4.617921412E-1
4.012411366E0,-6.114618182E-1,4.314320907E-2,7.068029642E-1
4.013717766E0,-5.677859783E-1,-1.651159860E-2,7.723167539E-1
4.016269036E0,-4.836300611E-1,7.936219871E-2,6.125270724E-1
4.017750113E0,-4.282363057E-1,2.450108230E-1,3.781688809E-1
4.020619174E0,-5.038700700E-1,2.780340314E-1,3.009372056E-1
4.022057766E0,-6.700513363E-1,2.093244642E-1,3.328951299E-1
4.024723366E0,-7.462177277E-1,3.398193717E-1,2.753708661E-1
4.026042536E0,-6.737797856E-1,3.366235793E-1,2.221076339E-1
4.028387305E0,-5.768406987E-1,1.017327532E-1,3.366235793E-1
4.030136536E0,-5.432848930E-1,-4.154531285E-2,4.585963488E-1
4.032466766E0,-4.383563101E-1,1.400822699E-1,4.266384244E-1
4.034183959E0,-2.673813701E-1,2.338255495E-1,3.952131271E-1
4.036652536E0,-1.454086006E-1,2.679139972E-1,4.490089715E-1
4.038474113E0,-8.362326026E-2,2.253034264E-1,5.581985712E-1
4.041163981E0,3.302319720E-2,2.924150825E-1,6.354302764E-1
4.042415920E0,7.989483327E-2,3.834952042E-2,7.568703890E-1
4.045267558E0,5.699164793E-2,-2.295644879E-1,8.165252209E-1
4.046572959E0,8.042746782E-2,-1.672465205E-1,6.215817928E-1
4.048927728E0,1.976065636E-1,8.468852192E-2,2.886866629E-1
4.050664920E0,2.812298238E-1,2.737729549E-1,1.288969964E-1
4.053097574E0,2.370213419E-1,3.291667104E-1,2.364887148E-1
4.054728843E0,1.613875628E-1,5.166532397E-1,3.957457542E-1
4.057241036E0,1.134506613E-1,6.498113275E-1,5.123922229E-1
