"Time (s)","Acceleration x (m/s^2)","Acceleration y (m/s^2)","Acceleration z (m/s^2)"
6.920731000E-3,-3.040636182E-1,8.319850922E0,5.872976780E0
9.531115000E-3,-3.232172430E-1,8.248024940E0,6.277596951E0
1.068184600E-2,-5.123591423E-1,8.054094315E0,6.512228489E0
1.371466200E-2,-8.044517636E-1,7.982268333E0,6.600813866E0
1.518780800E-2,-1.106121182E0,8.130708694E0,6.459556103E0
1.772334600E-2,-1.326387763E0,8.348581314E0,6.011840343E0
1.893865400E-2,-1.367089152E0,8.458714485E0,5.372588634E0
2.181542300E-2,-1.194706678E0,8.499416351E0,4.836287498E0
2.302950000E-2,-9.337386489E-1,8.583212852E0,4.534617901E0
2.594169200E-2,-8.068459630E-1,8.674192429E0,4.249708176E0
2.725096100E-2,-9.169792533E-1,8.743624687E0,3.758896589E0
3.006047000E-2,-1.106121182E0,8.851364136E0,3.193865061E0
3.119250000E-2,-1.175553083E0,9.035717010E0,2.861071110E0
3.411742300E-2,-1.122880578E0,9.227252960E0,2.894589901E0
3.536673100E-2,-1.072602391E0,9.270348549E0,3.055001259E0
3.820046100E-2,-1.108515382E0,9.174580574E0,3.124433279E0
3.941526900E-2,-1.156399369E0,9.069235802E0,3.160346270E0
4.203211500E-2,-1.103726983E0,9.016563416E0,3.294421434E0
4.350176900E-2,-9.576807022E-1,8.971074104E0,3.572149038E0
4.631080800E-2,-7.709329724E-1,8.865729332E0,3.960009575E0
4.760807700E-2,-6.081272364E-1,8.719682693E0,4.400542736E0
4.980538400E-2,-5.578489900E-1,8.590395927E0,4.867412090E0
5.150073100E-2,-6.703764796E-1,8.456320763E0,5.260061264E0
5.391176900E-2,-8.475474119E-1,8.346187592E0,5.544970989E0
5.561911500E-2,-9.576807022E-1,8.317456245E0,5.765237808E0
5.855931600E-2,-9.050082564E-1,8.334216118E0,5.963956356E0
5.978515400E-2,-8.379706144E-1,8.305485725E0,5.956773758E0
6.216038400E-2,-8.212111592E-1,8.255207062E0,5.834669590E0
6.387219200E-2,-8.786720037E-1,8.255207062E0,5.602431774E0
6.636911500E-2,-9.528923035E-1,8.331821442E0,5.286397457E0
6.808469200E-2,-9.768342972E-1,8.451532364E0,4.951209068E0
7.035784600E-2,-9.720458984E-1,8.573636055E0,4.649539471E0
7.208003800E-2,-9.983820915E-1,8.686163902E0,4.371812344E0
7.449784600E-2,-1.084573388E0,8.801085472E0,4.058171749E0
7.614750000E-2,-1.225831270E0,8.889671326E0,3.720589399E0
7.858138400E-2,-1.309628367E0,8.944737434E0,3.430891037E0
8.028411500E-2,-1.264138460E0,9.004592896E0,3.299209833E0
8.270850000E-2,-1.130063176E0,9.057265282E0,3.289633036E0
8.436169200E-2,-9.983820915E-1,9.069235802E0,3.303998232E0
8.709211500E-2,-9.313444495E-1,9.045293808E0,3.327940464E0
8.869534600E-2,-9.121908545E-1,8.995016098E0,3.438073635E0
9.132942300E-2,-8.954314590E-1,8.927978516E0,3.694253206E0
9.248219200E-2,-8.619126081E-1,8.858546257E0,4.031835556E0
9.537988400E-2,-8.212111592E-1,8.793902397E0,4.350264549E0
9.667742300E-2,-7.781155705E-1,8.734047890E0,4.613626480E0
9.948115400E-2,-7.541735172E-1,8.659827232E0,4.843470097E0
1.007021540E-1,-7.613561153E-1,8.554482460E0,5.044582844E0
1.035932310E-1,-7.924807668E-1,8.446743965E0,5.248090267E0
1.047901150E-1,-8.307880163E-1,8.355764389E0,5.408501625E0
1.077234230E-1,-8.475474119E-1,8.343792915E0,5.547365189E0
1.090843840E-1,-8.954314590E-1,8.389283180E0,5.535394192E0
1.117306150E-1,-1.012747288E0,8.413225174E0,5.403713226E0
1.128922310E-1,-1.151610970E0,8.415618896E0,5.204994678E0
1.158359610E-1,-1.240196466E0,8.441955566E0,5.018246651E0
1.170191540E-1,-1.247379065E0,8.501810074E0,4.869806290E0
1.199419610E-1,-1.199495077E0,8.583212852E0,4.702212334E0
1.211602690E-1,-1.168370485E0,8.664615631E0,4.441244125E0
1.237480770E-1,-1.173158884E0,8.743624687E0,4.127603531E0
1.252206150E-1,-1.173158884E0,8.832210541E0,3.873818398E0
1.280821920E-1,-1.132457376E0,8.899248123E0,3.739742994E0
1.294443840E-1,-1.063025594E0,8.913613319E0,3.687070608E0
1.318098070E-1,-9.864110947E-1,8.927978516E0,3.677493811E0
1.334105770E-1,-9.169792533E-1,8.990227699E0,3.667917013E0
1.358339610E-1,-8.690952063E-1,9.038111687E0,3.651157618E0
1.376113460E-1,-8.331822157E-1,9.011775017E0,3.689464808E0
1.399243460E-1,-7.541735172E-1,8.927978516E0,3.840299606E0
1.417079610E-1,-6.536170840E-1,8.853757858E0,4.096478939E0
1.440362310E-1,-5.817909837E-1,8.813055992E0,4.359841347E0
1.457795000E-1,-5.698199868E-1,8.755595207E0,4.537012100E0
1.482641540E-1,-6.033388376E-1,8.688557625E0,4.666299343E0
1.500855000E-1,-6.631938815E-1,8.645462036E0,4.807557106E0
1.522405770E-1,-7.374141216E-1,8.595184326E0,4.967968464E0
1.538939610E-1,-8.164227605E-1,8.516175270E0,5.118803024E0
1.562836920E-1,-8.690952063E-1,8.458714485E0,5.255272865E0
1.579687690E-1,-8.954314590E-1,8.468291283E0,5.315127850E0
1.603598070E-1,-9.504981041E-1,8.499416351E0,5.260061264E0
1.621215770E-1,-1.029506683E0,8.477868080E0,5.030217648E0
1.645475770E-1,-1.005564690E0,8.487444878E0,4.939238071E0
1.661814230E-1,-9.409212470E-1,8.528146744E0,4.903325081E0
1.689210380E-1,-9.074024558E-1,8.554482460E0,4.809951305E0
1.704625380E-1,-9.361328483E-1,8.576030731E0,4.599261284E0
1.731401920E-1,-9.935936928E-1,8.647856712E0,4.364629745E0
1.743457310E-1,-1.022324085E0,8.765172005E0,4.192247391E0
1.772158070E-1,-1.005564690E0,8.827422142E0,4.110844135E0
1.784145380E-1,-9.600749016E-1,8.815450668E0,4.082113743E0
1.813222000E-1,-9.026140571E-1,8.805873871E0,4.077325344E0
1.826003070E-1,-8.595184088E-1,8.848969460E0,4.060565948E0
1.854249690E-1,-8.379706144E-1,8.882488251E0,4.010287762E0
1.867071150E-1,-8.116343617E-1,8.863334656E0,3.976768970E0
1.895284310E-1,-7.685387731E-1,8.839392662E0,4.053383350E0
1.908815000E-1,-7.350199223E-1,8.829815865E0,4.228160381E0
1.935669690E-1,-7.278373241E-1,8.786720276E0,4.393360138E0
1.947025000E-1,-7.493851185E-1,8.724471092E0,4.505887508E0
1.976351610E-1,-7.757213712E-1,8.693346024E0,4.599261284E0
1.988360380E-1,-7.924807668E-1,8.690952301E0,4.675876141E0
2.017379690E-1,-8.212111592E-1,8.671798706E0,4.766855717E0
2.029445770E-1,-8.427590132E-1,8.590395927E0,4.860229492E0
2.056173460E-1,-8.379706144E-1,8.532935143E0,4.965574265E0
2.070668460E-1,-8.619126081E-1,8.537723541E0,5.027823448E0
2.099176540E-1,-9.409212470E-1,8.547300339E0,4.960785866E0
2.114781540E-1,-1.027112484E0,8.547300339E0,4.824316502E0
2.135489230E-1,-1.065419793E0,8.578424454E0,4.733336926E0
2.152804610E-1,-1.067813993E0,8.621520042E0,4.714183331E0
2.175857690E-1,-1.074996591E0,8.619126320E0,4.678270340E0
2.193434610E-1,-1.089361787E0,8.592789650E0,4.565742493E0
2.216776150E-1,-1.108515382E0,8.678980827E0,4.362235546E0
2.233573070E-1,-1.115697980E0,8.753201485E0,4.259284973E0
2.257369230E-1,-1.106121182E0,8.753201485E0,4.173093796E0
2.274751920E-1,-1.077390790E0,8.734047890E0,4.141968727E0
2.299753460E-1,-1.034295082E0,8.753201485E0,4.151545525E0
2.317742300E-1,-1.005564690E0,8.779537201E0,4.165910721E0
2.338930770E-1,-1.000776291E0,8.769960403E0,4.151545525E0
2.356450380E-1,-9.816226959E-1,8.738836288E0,4.149151325E0
2.381960770E-1,-9.385270476E-1,8.743624687E0,4.206612587E0
2.396709230E-1,-9.050082564E-1,8.748413086E0,4.326322556E0
2.420422300E-1,-9.074024558E-1,8.702922821E0,4.441244125E0
2.437721920E-1,-9.289502501E-1,8.638279915E0,4.522646904E0
2.462358460E-1,-9.528923035E-1,8.621520042E0,4.572925091E0
2.478714610E-1,-9.816226959E-1,8.638279915E0,4.604049683E0
2.507957000E-1,-1.005564690E0,8.621520042E0,4.632780075E0
2.523635770E-1,-1.005564690E0,8.592789650E0,4.695029736E0
2.548525460E-1,-1.000776291E0,8.568847656E0,4.774038315E0
2.560095000E-1,-1.022324085E0,8.554482460E0,4.793191910E0
2.589161540E-1,-1.065419793E0,8.554482460E0,4.738125324E0
2.600891540E-1,-1.096544385E0,8.571242332E0,4.656722069E0
2.630243150E-1,-1.070208192E0,8.556877136E0,4.410119534E0
2.642146920E-1,-9.696516991E-1,8.568847656E0,2.815581083E0
2.671272000E-1,-1.108515382E0,9.378087997E0,1.106121182E0
2.683591150E-1,-1.180341482E0,1.026873112E1,1.798045516E0
2.712304690E-1,-1.292868972E0,9.890447617E0,3.677493811E0
2.726610380E-1,-1.783680320E0,8.599972725E0,4.898536682E0
2.752767760E-1,-2.030282974E0,7.699752808E0,5.080495834E0
2.764826920E-1,-1.525106430E0,8.032546997E0,5.415684223E0
2.793450460E-1,-4.094084799E-1,8.595184326E0,6.531382084E0
2.805462300E-1,-1.436521020E-2,7.860164165E0,6.643909931E0
2.834478530E-1,8.619125932E-2,7.398083210E0,6.562506676E0
2.846898070E-1,-1.197100878E-1,7.750030994E0,6.339846134E0
2.874012300E-1,-7.230489254E-1,8.403648376E0,5.700594425E0
2.887606920E-1,-1.446097851E0,8.805873871E0,4.881777287E0
2.916556610E-1,-1.802833915E0,8.868123055E0,4.364629745E0
2.930878070E-1,-1.747767210E0,8.868123055E0,4.450820923E0
2.951990380E-1,-1.553836942E0,8.851364136E0,4.618414879E0
2.968508840E-1,-1.386242747E0,8.834604263E0,4.197035789E0
2.992721920E-1,-1.189918280E0,9.004592896E0,3.332728863E0
3.010824610E-1,-8.044517636E-1,9.191340446E0,2.499546528E0
3.038748150E-1,-3.423708379E-1,9.162610054E0,2.195482969E0
3.050668840E-1,-5.746084079E-2,8.956708908E0,2.573766708E0
3.074858460E-1,-9.337386489E-2,8.793902397E0,3.260902643E0
3.091893840E-1,-5.003881454E-1,8.858546257E0,3.785232782E0
3.117047300E-1,-1.122880578E0,8.978256226E0,3.883395195E0
3.134650000E-1,-1.630451322E0,8.990227699E0,3.794809580E0
3.156284230E-1,-1.728613615E0,8.966285706E0,4.072536945E0
3.173489230E-1,-1.403002143E0,8.892065048E0,4.745307922E0
3.196730770E-1,-9.648633003E-1,8.659827232E0,5.363011837E0
3.214008070E-1,-7.278373241E-1,8.305485725E0,5.583278179E0
3.237718070E-1,-6.584054828E-1,8.075642586E0,5.501875401E0
3.255160770E-1,-5.770025849E-1,8.161833763E0,5.475539207E0
3.279690770E-1,-4.572925270E-1,8.372523308E0,5.568912983E0
3.296133070E-1,-4.237737060E-1,8.418013573E0,5.667075634E0
3.323918840E-1,-5.961562395E-1,8.293514252E0,5.731719017E0
3.339658460E-1,-1.103726983E0,8.264783859E0,5.729324818E0
3.365794690E-1,-1.424550056E0,8.470685959E0,5.509057999E0
3.377394610E-1,-1.584961534E0,8.659827232E0,5.044582844E0
3.406431920E-1,-1.508347034E0,8.736441612E0,4.560954094E0
3.418354610E-1,-1.225831270E0,8.755595207E0,4.321534157E0
3.447382300E-1,-9.169792533E-1,8.765172005E0,4.249708176E0
3.459255380E-1,-7.685387731E-1,8.746018410E0,4.113238335E0
3.488536220E-1,-8.020575643E-1,8.743624687E0,3.787626982E0
3.500501920E-1,-8.906430602E-1,8.829815865E0,3.497928619E0
3.529574300E-1,-9.193734527E-1,8.995016098E0,3.442862034E0
3.543223460E-1,-9.217676520E-1,9.136273384E0,3.572149038E0
3.569949680E-1,-9.888052940E-1,9.105149269E0,3.725377798E0
3.581434610E-1,-1.103726983E0,8.947132111E0,3.873818398E0
3.610527300E-1,-1.156399369E0,8.815450668E0,4.120420933E0
3.622426530E-1,-1.084573388E0,8.753201485E0,4.419696331E0
3.651666610E-1,-9.145850539E-1,8.681375504E0,4.570530891E0
3.663920770E-1,-7.062895298E-1,8.583212852E0,4.513070107E0
3.691268460E-1,-5.410895944E-1,8.559270859E0,4.498704910E0
3.704984610E-1,-5.458779931E-1,8.604761124E0,4.754884720E0
3.733742380E-1,-7.781155705E-1,8.564059258E0,5.085284233E0
3.747250000E-1,-1.098938584E0,8.441955566E0,5.260061264E0
3.767307300E-1,-1.302445769E0,8.422801971E0,5.312733650E0
3.785731150E-1,-1.302445769E0,8.540117264E0,5.334281445E0
3.810451920E-1,-1.182735682E0,8.609549522E0,5.298368454E0
3.826898460E-1,-1.034295082E0,8.516175270E0,5.169081688E0
3.850930000E-1,-8.930372596E-1,8.401253700E0,5.051765442E0
3.868700000E-1,-7.781155705E-1,8.370129585E0,4.924872875E0
3.891989610E-1,-7.541735172E-1,8.453926086E0,4.745307922E0
3.908901920E-1,-8.403648138E-1,8.607154846E0,4.563348293E0
3.933894230E-1,-1.077390790E0,8.820239067E0,4.343081951E0
3.952198840E-1,-1.285686255E0,8.877699852E0,4.295197964E0
3.973532690E-1,-1.441309452E0,8.858546257E0,4.347870350E0
3.990370380E-1,-1.520318031E0,8.865729332E0,4.491522312E0
4.014475380E-1,-1.501164436E0,8.856152534E0,4.505887508E0
4.032594230E-1,-1.175553083E0,8.470685959E0,3.385401249E0
4.055007690E-1,-5.530605912E-1,8.451532364E0,1.747767210E0
4.072912300E-1,-1.580173075E-1,9.780313492E0,3.064578056E0
4.096993840E-1,-3.327940404E-1,1.026873112E1,5.509057999E0
4.113837300E-1,-1.529894829E0,8.611943245E0,5.427655220E0
4.140613460E-1,-2.499546528E0,7.261613846E0,4.220977783E0
4.156126920E-1,-1.546654344E0,7.943961143E0,4.156333923E0
4.182794680E-1,-8.379705995E-2,9.483432770E0,5.525817394E0
4.194421920E-1,2.274491638E-1,9.085995674E0,5.635950565E0
4.223484300E-1,3.351882473E-2,7.402871609E0,3.603273630E0
4.235337690E-1,2.873042040E-2,7.706935406E0,2.535459518E0
4.264523140E-1,-2.082955539E-1,9.818621635E0,4.273650169E0
4.276406150E-1,-1.055842996E0,1.039562416E1,5.784391403E0
4.305563530E-1,-2.444479942E0,8.743624687E0,5.003881454E0
4.317478070E-1,-2.901772499E0,7.541735172E0,4.053383350E0
4.346607370E-1,-1.719036818E0,8.200140953E0,4.786009312E0
4.360489230E-1,-5.817909837E-1,9.160215378E0,6.145915985E0
4.386996990E-1,-4.740519226E-1,8.588001251E0,5.803544998E0
4.399195760E-1,-5.315127969E-1,7.716512203E0,4.390965939E0
4.427684230E-1,-1.556231081E-1,8.111555099E0,3.921702385E0
4.439575380E-1,1.101332754E-1,8.846575737E0,4.264073372E0
4.468738910E-1,-3.040636182E-1,8.858546257E0,4.479551315E0
4.481006920E-1,-1.012747288E0,8.578424454E0,4.513070107E0
4.507203460E-1,-1.572990537E0,8.789113998E0,4.568136692E0
4.521703070E-1,-1.872265697E0,8.963891029E0,4.383783340E0
4.550825830E-1,-2.051830769E0,8.916007042E0,3.928884983E0
4.564927690E-1,-1.747767210E0,9.083600998E0,3.766079187E0
4.586093460E-1,-9.768342972E-1,9.301473618E0,3.909731388E0
4.603425380E-1,-2.753331959E-1,8.935160637E0,3.806780815E0
4.627736920E-1,-2.154781483E-2,8.305485725E0,3.639186621E0
4.644245380E-1,-9.576806799E-3,8.250418663E0,3.897760391E0
4.667880000E-1,-6.464344263E-2,8.779537201E0,4.426878929E0
4.685014610E-1,-3.950432837E-1,9.062053680E0,4.627991676E0
4.708996530E-1,-9.959878922E-1,8.714894295E0,4.402936935E0
4.726808070E-1,-1.474828243E0,8.437167168E0,4.513070107E0
4.751030760E-1,-1.561019540E0,8.722076416E0,5.209783077E0
4.768781530E-1,-1.434126854E0,8.983044624E0,5.590460777E0
4.790246530E-1,-1.335964561E0,8.667010307E0,5.135562420E0
4.807178840E-1,-1.125274777E0,8.185775757E0,4.517858505E0
4.831022300E-1,-6.392518282E-1,8.214506149E0,4.611232281E0
4.848370000E-1,-2.082955539E-1,8.573636055E0,5.169081688E0
4.872213840E-1,-2.944868207E-1,8.568847656E0,5.233725071E0
4.889541920E-1,-7.709329724E-1,8.238448143E0,4.752490520E0
4.914850380E-1,-1.144428372E0,8.252813339E0,4.505887508E0
4.930383460E-1,-1.268926859E0,8.746018410E0,4.752490520E0
4.957999610E-1,-1.364694953E0,9.090784073E0,4.896142483E0
4.973878840E-1,-1.482010841E0,8.872911453E0,4.556165695E0
5.000010060E-1,-1.374271750E0,8.520963669E0,4.165910721E0
5.014444230E-1,-9.816226959E-1,8.540117264E0,4.204218388E0
5.040702370E-1,-6.392518282E-1,8.760383606E0,4.371812344E0
5.053395760E-1,-6.105214357E-1,8.786720276E0,4.177882195E0
5.081738910E-1,-7.230489254E-1,8.674192429E0,3.797203779E0
5.093597300E-1,-7.350199223E-1,8.817844391E0,3.940855980E0
5.122773520E-1,-8.403648138E-1,8.913613319E0,4.328716755E0
5.134932300E-1,-1.098938584E0,8.786720276E0,4.458003521E0
5.163818140E-1,-1.244984865E0,8.659827232E0,4.369418144E0
5.177814230E-1,-1.125274777E0,8.724471092E0,4.378994942E0
5.204201530E-1,-8.738836050E-1,8.781931877E0,4.513070107E0
5.215665000E-1,-7.110779285E-1,8.655038834E0,4.618414879E0
5.244989680E-1,-7.015010715E-1,8.494627953E0,4.673481941E0
5.257126150E-1,-7.637503147E-1,8.482656479E0,4.723760128E0
5.286038520E-1,-8.571242094E-1,8.566453934E0,4.762067318E0
5.298848460E-1,-9.935936928E-1,8.592789650E0,4.754884720E0
5.327088520E-1,-1.127668977E0,8.573636055E0,4.733336926E0
5.338943840E-1,-1.201889277E0,8.628703117E0,4.762067318E0
5.367941530E-1,-1.211466074E0,8.669404030E0,4.774038315E0
5.381559610E-1,-1.168370485E0,8.599972725E0,4.699818134E0
5.403107690E-1,-1.084573388E0,8.520963669E0,4.647145271E0
5.420450380E-1,-1.003170490E0,8.564059258E0,4.606443882E0
5.444075760E-1,-9.792284966E-1,8.690952301E0,4.484339714E0
5.461012300E-1,-1.005564690E0,8.750806808E0,4.283226967E0
5.490330450E-1,-1.029506683E0,8.722076416E0,4.144362926E0
5.502766530E-1,-1.041477680E0,8.738836288E0,4.192247391E0
5.526317690E-1,-1.094150186E0,8.789113998E0,4.288015366E0
5.543867690E-1,-1.168370485E0,8.798690796E0,4.223371983E0
5.568455760E-1,-1.154005170E0,8.779537201E0,4.101267338E0
5.586353460E-1,-1.005564690E0,8.781931877E0,4.110844135E0
5.607613840E-1,-8.451532125E-1,8.801085472E0,4.249708176E0
5.624636920E-1,-8.188169599E-1,8.757989883E0,4.357447147E0
5.648442690E-1,-9.145850539E-1,8.667010307E0,4.343081951E0
5.665754610E-1,-9.840168953E-1,8.686163902E0,4.400542736E0
5.689565380E-1,-9.624691010E-1,8.765172005E0,4.544194698E0
5.706888840E-1,-9.935936928E-1,8.755595207E0,4.611232281E0
5.731389230E-1,-1.041477680E0,8.659827232E0,4.616020679E0
5.747734230E-1,-9.959878922E-1,8.583212852E0,4.663905144E0
5.775019990E-1,-8.643068075E-1,8.571242332E0,4.795586109E0
5.790868070E-1,-7.709329724E-1,8.566453934E0,4.896142483E0
5.817371530E-1,-8.020575643E-1,8.535328865E0,4.829104900E0
5.828994610E-1,-9.121908545E-1,8.552088737E0,4.685452938E0
5.857985760E-1,-1.000776291E0,8.643068314E0,4.620809078E0
5.870609230E-1,-1.036689281E0,8.712499619E0,4.630385876E0
5.898984990E-1,-1.077390790E0,8.690952301E0,4.627991676E0
5.911087690E-1,-1.106121182E0,8.633491516E0,4.563348293E0
5.940142300E-1,-1.072602391E0,8.657433510E0,4.486733913E0
5.951921920E-1,-9.672574997E-1,8.750806808E0,4.453215122E0
5.981321210E-1,-8.451532125E-1,8.767566681E0,4.414907932E0
5.995108460E-1,-7.685387731E-1,8.690952301E0,4.352658749E0
6.021702370E-1,-7.661445141E-1,8.674192429E0,4.326322556E0
6.033083840E-1,-8.068459630E-1,8.738836288E0,4.323928356E0
6.062134610E-1,-8.595184088E-1,8.793902397E0,4.299986362E0
6.074057690E-1,-8.834604025E-1,8.791508675E0,4.276044369E0
6.103138070E-1,-8.930372596E-1,8.784325600E0,4.292803764E0
6.115049610E-1,-9.097966552E-1,8.808267593E0,4.362235546E0
6.141641150E-1,-9.145850539E-1,8.774748802E0,4.434061527E0
6.156511920E-1,-8.499416113E-1,8.690952301E0,4.501099110E0
6.185184230E-1,-7.398083210E-1,8.671798706E0,4.582501888E0
6.199043070E-1,-6.991068721E-1,8.698134422E0,4.618414879E0
6.220505760E-1,-7.685387731E-1,8.698134422E0,4.560954094E0
6.237320760E-1,-8.475474119E-1,8.662221909E0,4.489128113E0
6.261241920E-1,-8.475474119E-1,8.674192429E0,4.589684486E0
6.278436920E-1,-8.595184088E-1,8.683769226E0,4.671087742E0
6.302008460E-1,-9.265560508E-1,8.626308441E0,4.649539471E0
6.319584230E-1,-9.648633003E-1,8.588001251E0,4.596867085E0
6.343412690E-1,-9.337386489E-1,8.659827232E0,4.608838081E0
6.360883840E-1,-8.906430602E-1,8.712499619E0,4.635174274E0
6.385561920E-1,-9.026140571E-1,8.631096840E0,4.577713490E0
6.404229230E-1,-9.433154464E-1,8.559270859E0,4.503493309E0
6.424958460E-1,-9.504981041E-1,8.633491516E0,4.491522312E0
6.441779990E-1,-9.576807022E-1,8.743624687E0,4.486733913E0
6.465661920E-1,-9.864110947E-1,8.731653214E0,4.400542736E0
6.482983840E-1,-9.959878922E-1,8.659827232E0,4.309563160E0
6.506857690E-1,-9.792284966E-1,8.688557625E0,4.338293552E0
6.524387300E-1,-9.600749016E-1,8.753201485E0,4.450820923E0
6.548633460E-1,-9.313444495E-1,8.707711220E0,4.479551315E0
6.565211530E-1,-9.050082564E-1,8.645462036E0,4.429273129E0
6.593243840E-1,-9.026140571E-1,8.690952301E0,4.395754337E0
6.607836150E-1,-9.457096457E-1,8.784325600E0,4.388571739E0
6.634751150E-1,-1.005564690E0,8.772355080E0,4.374206543E0
6.646119610E-1,-1.010353088E0,8.686163902E0,4.386177540E0
6.675370760E-1,-9.624691010E-1,8.683769226E0,4.472368717E0
6.687309990E-1,-9.361328483E-1,8.731653214E0,4.537012100E0
6.716512360E-1,-9.528923035E-1,8.698134422E0,4.505887508E0
6.728280760E-1,-9.433154464E-1,8.635885239E0,4.474762917E0
6.757429990E-1,-8.834604025E-1,8.664615631E0,4.527435303E0
6.769363460E-1,-8.714894056E-1,8.719682693E0,4.608838081E0
6.798605440E-1,-9.720458984E-1,8.635885239E0,4.541800499E0
6.812100380E-1,-1.012747288E0,8.635885239E0,4.505887508E0
6.839010440E-1,-9.864110947E-1,8.726864815E0,4.527435303E0
6.850986530E-1,-9.576807022E-1,8.757989883E0,4.503493309E0
6.879713900E-1,-9.433154464E-1,8.671798706E0,4.434061527E0
6.892704990E-1,-9.026140571E-1,8.626308441E0,4.431667328E0
6.920762750E-1,-8.499416113E-1,8.681375504E0,4.520252705E0
6.932580760E-1,-8.427590132E-1,8.686163902E0,4.534617901E0
6.958834220E-1,-8.810662031E-1,8.623914719E0,4.436455727E0
6.973808460E-1,-9.241618514E-1,8.647856712E0,4.374206543E0
7.002633070E-1,-9.624691010E-1,8.757989883E0,4.422090530E0
7.017951530E-1,-1.007958889E0,8.784325600E0,4.462791920E0
7.038459610E-1,-1.022324085E0,8.686163902E0,4.429273129E0
7.055782300E-1,-9.672574997E-1,8.631096840E0,4.407725334E0
7.078804220E-1,-8.810662031E-1,8.688557625E0,4.467580318E0
7.096188070E-1,-8.355764151E-1,8.710105896E0,4.498704910E0
7.119671530E-1,-8.283938169E-1,8.635885239E0,4.477157116E0
7.137101530E-1,-8.379706144E-1,8.604761124E0,4.503493309E0
7.161024990E-1,-8.738836050E-1,8.667010307E0,4.577713490E0
7.178149610E-1,-9.433154464E-1,8.710105896E0,4.604049683E0
7.203200380E-1,-1.017535686E0,8.674192429E0,4.563348293E0
7.220779990E-1,-1.022324085E0,8.655038834E0,4.551377296E0
7.242366530E-1,-9.576807022E-1,8.700529099E0,4.599261284E0
7.259225760E-1,-8.954314590E-1,8.690952301E0,4.596867085E0
7.282842690E-1,-8.523358107E-1,8.614337921E0,4.546588898E0
7.300044990E-1,-8.116343617E-1,8.580819130E0,4.560954094E0
7.323987300E-1,-7.852981687E-1,8.633491516E0,4.616020679E0
7.341284610E-1,-8.140285611E-1,8.686163902E0,4.604049683E0
7.366851920E-1,-9.169792533E-1,8.655038834E0,4.458003521E0
7.382337690E-1,-9.528923035E-1,8.686163902E0,4.467580318E0
7.411468900E-1,-9.744400978E-1,8.731653214E0,4.541800499E0
7.427441920E-1,-9.983820915E-1,8.707711220E0,4.534617901E0
7.452007690E-1,-9.696516991E-1,8.652645111E0,4.443638325E0
7.463404990E-1,-8.762778044E-1,8.671798706E0,4.410119534E0
7.492698070E-1,-7.924807668E-1,8.717288017E0,4.436455727E0
7.504654220E-1,-7.781155705E-1,8.688557625E0,4.448426723E0
7.533760050E-1,-8.092401624E-1,8.643068314E0,4.434061527E0
7.546073070E-1,-8.331822157E-1,8.662221909E0,4.429273129E0
7.574801980E-1,-8.738836050E-1,8.724471092E0,4.462791920E0
7.586588450E-1,-9.337386489E-1,8.736441612E0,4.474762917E0
7.615835820E-1,-9.744400978E-1,8.702922821E0,4.474762917E0
7.630551920E-1,-9.672574997E-1,8.705317497E0,4.496310711E0
7.656390380E-1,-9.074024558E-1,8.714894295E0,4.527435303E0
7.667951920E-1,-8.547300100E-1,8.695740700E0,4.541800499E0
7.697098510E-1,-8.307880163E-1,8.647856712E0,4.556165695E0
7.709260760E-1,-8.403648138E-1,8.626308441E0,4.568136692E0
7.738136590E-1,-8.786720037E-1,8.647856712E0,4.556165695E0
7.749824220E-1,-9.121908545E-1,8.667010307E0,4.522646904E0
7.776216530E-1,-9.457096457E-1,8.674192429E0,4.510675907E0
7.790801530E-1,-9.816226959E-1,8.678980827E0,4.553771496E0
7.819861150E-1,-1.017535686E0,8.674192429E0,4.599261284E0
7.834059990E-1,-1.031900883E0,8.664615631E0,4.584896088E0
7.855634610E-1,-9.744400978E-1,8.655038834E0,4.525041103E0
7.872443070E-1,-9.026140571E-1,8.664615631E0,4.503493309E0
7.896020380E-1,-8.762778044E-1,8.678980827E0,4.529829502E0
7.913360380E-1,-8.954314590E-1,8.676587105E0,4.520252705E0
7.942409670E-1,-9.361328483E-1,8.678980827E0,4.434061527E0
7.954633450E-1,-9.313444495E-1,8.710105896E0,4.417302132E0
7.979537300E-1,-9.265560508E-1,8.743624687E0,4.448426723E0
7.996319220E-1,-9.528923035E-1,8.734047890E0,4.460397720E0
8.020661530E-1,-9.648633003E-1,8.702922821E0,4.446032524E0
8.038984610E-1,-9.169792533E-1,8.693346024E0,4.434061527E0
8.060399990E-1,-8.475474119E-1,8.700529099E0,4.465186119E0
8.076569610E-1,-8.283938169E-1,8.698134422E0,4.505887508E0
8.100446530E-1,-8.762778044E-1,8.676587105E0,4.503493309E0
8.117644990E-1,-9.169792533E-1,8.678980827E0,4.469974518E0
8.141358840E-1,-9.026140571E-1,8.710105896E0,4.460397720E0
8.158796150E-1,-8.882488012E-1,8.729259491E0,4.484339714E0
8.183438070E-1,-9.289502501E-1,8.700529099E0,4.525041103E0
8.199831530E-1,-9.528923035E-1,8.655038834E0,4.544194698E0
8.227616920E-1,-9.121908545E-1,8.657433510E0,4.544194698E0
8.243529220E-1,-8.427590132E-1,8.688557625E0,4.546588898E0
8.269623130E-1,-8.044517636E-1,8.669404030E0,4.546588898E0
8.280886150E-1,-8.188169599E-1,8.628703117E0,4.546588898E0
8.310105760E-1,-8.667010069E-1,8.645462036E0,4.556165695E0
8.322054610E-1,-8.954314590E-1,8.693346024E0,4.534617901E0
8.351231920E-1,-9.074024558E-1,8.717288017E0,4.493916512E0
8.363403070E-1,-9.121908545E-1,8.695740700E0,4.484339714E0
8.392396970E-1,-9.265560508E-1,8.686163902E0,4.508281708E0
8.405056530E-1,-9.337386489E-1,8.702922821E0,4.548983097E0
8.433432360E-1,-9.121908545E-1,8.683769226E0,4.525041103E0
8.446890760E-1,-8.547300100E-1,8.645462036E0,4.481945515E0
8.473791920E-1,-8.116343617E-1,8.652645111E0,4.491522312E0
8.485761150E-1,-8.499416113E-1,8.686163902E0,4.532223701E0
8.514459990E-1,-9.457096457E-1,8.664615631E0,4.491522312E0
8.526360380E-1,-9.385270476E-1,8.659827232E0,4.460397720E0
8.555553510E-1,-9.097966552E-1,8.698134422E0,4.496310711E0
8.568102690E-1,-9.361328483E-1,8.712499619E0,4.556165695E0
8.594250380E-1,-9.864110947E-1,8.655038834E0,4.541800499E0
8.608483070E-1,-9.624691010E-1,8.626308441E0,4.496310711E0
8.637176150E-1,-8.738836050E-1,8.683769226E0,4.520252705E0
8.651077300E-1,-8.355764151E-1,8.719682693E0,4.558559895E0
8.672672680E-1,-8.882488012E-1,8.664615631E0,4.532223701E0
8.689776920E-1,-9.457096457E-1,8.621520042E0,4.498704910E0
8.713678070E-1,-9.217676520E-1,8.678980827E0,4.486733913E0
8.730843070E-1,-8.714894056E-1,8.748413086E0,4.493916512E0
8.754547680E-1,-8.882488012E-1,8.717288017E0,4.479551315E0
8.771799990E-1,-9.385270476E-1,8.655038834E0,4.462791920E0
8.795580380E-1,-9.481038451E-1,8.681375504E0,4.496310711E0
8.814384610E-1,-9.050082564E-1,8.731653214E0,4.513070107E0
8.838571150E-1,-8.547300100E-1,8.705317497E0,4.469974518E0
8.856296530E-1,-8.451532125E-1,8.662221909E0,4.450820923E0
8.877216150E-1,-8.762778044E-1,8.674192429E0,4.481945515E0
8.894395380E-1,-9.289502501E-1,8.724471092E0,4.496310711E0
8.917707300E-1,-9.504981041E-1,8.702922821E0,4.443638325E0
8.934756150E-1,-9.097966552E-1,8.659827232E0,4.434061527E0
8.958734990E-1,-8.930372596E-1,8.690952301E0,4.527435303E0
8.976304610E-1,-9.361328483E-1,8.712499619E0,4.589684486E0
9.000888840E-1,-9.672574997E-1,8.652645111E0,4.551377296E0
9.017327680E-1,-9.097966552E-1,8.616731644E0,4.510675907E0
9.044784610E-1,-8.451532125E-1,8.657433510E0,4.560954094E0
9.059883450E-1,-8.810662031E-1,8.678980827E0,4.623203278E0
9.086656970E-1,-9.959878922E-1,8.619126320E0,4.563348293E0
9.098289990E-1,-9.888052940E-1,8.614337921E0,4.539406300E0
9.127331590E-1,-8.882488012E-1,8.707711220E0,4.575319290E0
9.139159990E-1,-8.930372596E-1,8.693346024E0,4.584896088E0
9.168352300E-1,-9.385270476E-1,8.623914719E0,4.548983097E0
9.180290760E-1,-9.361328483E-1,8.621520042E0,4.551377296E0
9.209353070E-1,-8.762778044E-1,8.688557625E0,4.582501888E0
9.221463450E-1,-8.427590132E-1,8.702922821E0,4.563348293E0
9.250411970E-1,-8.810662031E-1,8.640673637E0,4.517858505E0
9.264441530E-1,-9.313444495E-1,8.621520042E0,4.510675907E0
9.290780820E-1,-9.433154464E-1,8.688557625E0,4.537012100E0
9.302466150E-1,-9.169792533E-1,8.712499619E0,4.534617901E0
9.331456200E-1,-8.762778044E-1,8.652645111E0,4.498704910E0
9.343494990E-1,-8.738836050E-1,8.633491516E0,4.517858505E0
9.372478510E-1,-9.074024558E-1,8.671798706E0,4.568136692E0
9.384414610E-1,-9.121908545E-1,8.681375504E0,4.548983097E0
9.411026530E-1,-8.571242094E-1,8.633491516E0,4.496310711E0
9.425393450E-1,-8.044517636E-1,8.619126320E0,4.489128113E0
9.454520050E-1,-8.427590132E-1,8.669404030E0,4.546588898E0
9.468815380E-1,-9.361328483E-1,8.683769226E0,4.553771496E0
9.489597300E-1,-9.648633003E-1,8.645462036E0,4.489128113E0
9.506542300E-1,-9.050082564E-1,8.650250435E0,4.474762917E0
9.530553450E-1,-8.595184088E-1,8.693346024E0,4.520252705E0
9.547879220E-1,-8.834604025E-1,8.683769226E0,4.539406300E0
9.571659990E-1,-9.121908545E-1,8.626308441E0,4.505887508E0
9.588995760E-1,-8.762778044E-1,8.616731644E0,4.486733913E0
9.612617300E-1,-8.044517636E-1,8.674192429E0,4.501099110E0
9.631164990E-1,-8.164227605E-1,8.705317497E0,4.515464306E0
9.655051150E-1,-9.768342972E-1,8.647856712E0,4.489128113E0
9.672815760E-1,-1.000776291E0,8.674192429E0,4.508281708E0
9.694676920E-1,-9.361328483E-1,8.695740700E0,4.537012100E0
9.713275760E-1,-8.906430602E-1,8.655038834E0,4.532223701E0
9.735268070E-1,-9.145850539E-1,8.607154846E0,4.541800499E0
9.753959990E-1,-9.457096457E-1,8.616731644E0,4.599261284E0
9.775794220E-1,-9.241618514E-1,8.652645111E0,4.635174274E0
9.793129220E-1,-8.834604025E-1,8.640673637E0,4.623203278E0
9.817437300E-1,-8.834604025E-1,8.607154846E0,4.606443882E0
9.833988450E-1,-9.361328483E-1,8.621520042E0,4.647145271E0
9.861721910E-1,-9.768342972E-1,8.647856712E0,4.678270340E0
9.877321530E-1,-9.576807022E-1,8.623914719E0,4.656722069E0
9.903465760E-1,-8.906430602E-1,8.597578049E0,4.637568474E0
9.915376530E-1,-8.523358107E-1,8.611943245E0,4.644751072E0
9.944246150E-1,-8.786720037E-1,8.633491516E0,4.663905144E0
9.956127300E-1,-9.121908545E-1,8.616731644E0,4.639962673E0
9.985325040E-1,-8.906430602E-1,8.604761124E0,4.584896088E0
9.997198840E-1,-8.307880163E-1,8.635885239E0,4.556165695E0
1.002635543E0,-8.379706144E-1,8.667010307E0,4.539406300E0
1.003816884E0,-9.169792533E-1,8.667010307E0,4.505887508E0
1.006738466E0,-9.600749016E-1,8.664615631E0,4.465186119E0
1.008200538E0,-9.145850539E-1,8.688557625E0,4.441244125E0
1.010796774E0,-8.667010069E-1,8.698134422E0,4.436455727E0
1.011964999E0,-8.834604025E-1,8.683769226E0,4.419696331E0
1.014864966E0,-9.289502501E-1,8.659827232E0,4.414907932E0
1.016056961E0,-9.289502501E-1,8.669404030E0,4.424484730E0
1.018968543E0,-8.906430602E-1,8.688557625E0,4.434061527E0
1.020267384E0,-8.690952063E-1,8.686163902E0,4.414907932E0
1.022829422E0,-9.026140571E-1,8.681375504E0,4.410119534E0
1.024276115E0,-9.720458984E-1,8.686163902E0,4.465186119E0
1.027175197E0,-9.289502501E-1,8.686163902E0,4.491522312E0
1.028538538E0,-8.667010069E-1,8.674192429E0,4.513070107E0
1.030699961E0,-8.690952063E-1,8.655038834E0,4.532223701E0
1.032354884E0,-9.121908545E-1,8.643068314E0,4.556165695E0
1.034787845E0,-9.361328483E-1,8.652645111E0,4.584896088E0
1.036473576E0,-8.978256583E-1,8.657433510E0,4.592078686E0
1.039392350E0,-8.547300100E-1,8.657433510E0,4.580107689E0
1.040593038E0,-8.714894056E-1,8.650250435E0,4.577713490E0
1.042992576E0,-9.289502501E-1,8.647856712E0,4.577713490E0
1.044739268E0,-9.552865028E-1,8.662221909E0,4.577713490E0
1.047346307E0,-9.217676520E-1,8.645462036E0,4.582501888E0
1.049004961E0,-8.810662031E-1,8.631096840E0,4.570530891E0
1.051124730E0,-9.026140571E-1,8.645462036E0,4.577713490E0
1.052876691E0,-9.528923035E-1,8.667010307E0,4.592078686E0
1.055206961E0,-9.648633003E-1,8.664615631E0,4.580107689E0
1.056921538E0,-9.313444495E-1,8.643068314E0,4.551377296E0
1.059287961E0,-9.026140571E-1,8.650250435E0,4.541800499E0
1.061014115E0,-9.385270476E-1,8.674192429E0,4.568136692E0
1.063500653E0,-9.935936928E-1,8.667010307E0,4.565742493E0
1.065136768E0,-9.816226959E-1,8.655038834E0,4.537012100E0
1.067908422E0,-9.169792533E-1,8.664615631E0,4.539406300E0
1.069622999E0,-8.810662031E-1,8.676587105E0,4.551377296E0
1.072084081E0,-9.026140571E-1,8.671798706E0,4.548983097E0
1.073240268E0,-9.193734527E-1,8.655038834E0,4.532223701E0
1.076152581E0,-8.810662031E-1,8.657433510E0,4.508281708E0
1.077397730E0,-8.451532125E-1,8.686163902E0,4.498704910E0
1.080256081E0,-8.643068075E-1,8.683769226E0,4.481945515E0
1.081440576E0,-9.169792533E-1,8.671798706E0,4.443638325E0
1.084355307E0,-9.289502501E-1,8.702922821E0,4.465186119E0
1.085552345E0,-8.810662031E-1,8.700529099E0,4.472368717E0
1.088461773E0,-8.499416113E-1,8.662221909E0,4.450820923E0
1.089844153E0,-8.762778044E-1,8.647856712E0,4.446032524E0
1.092499696E0,-9.097966552E-1,8.681375504E0,4.465186119E0
1.093750499E0,-9.289502501E-1,8.710105896E0,4.484339714E0
1.096559268E0,-9.289502501E-1,8.671798706E0,4.465186119E0
1.097754230E0,-9.337386489E-1,8.645462036E0,4.458003521E0
1.100668884E0,-9.600749016E-1,8.681375504E0,4.508281708E0
1.101869961E0,-9.816226959E-1,8.695740700E0,4.537012100E0
1.104526768E0,-9.672574997E-1,8.652645111E0,4.520252705E0
1.106003768E0,-9.265560508E-1,8.611943245E0,4.513070107E0
1.108869422E0,-9.050082564E-1,8.631096840E0,4.548983097E0
1.110261845E0,-9.361328483E-1,8.678980827E0,4.594472885E0
1.112406730E0,-9.792284966E-1,8.655038834E0,4.582501888E0
1.114076768E0,-9.648633003E-1,8.619126320E0,4.560954094E0
1.116467038E0,-9.145850539E-1,8.659827232E0,4.584896088E0
1.118196768E0,-9.097966552E-1,8.700529099E0,4.582501888E0
1.120571076E0,-9.504981041E-1,8.678980827E0,4.548983097E0
1.122316114E0,-9.552865028E-1,8.657433510E0,4.541800499E0
1.124717384E0,-9.002198577E-1,8.674192429E0,4.568136692E0
1.126403038E0,-8.643068075E-1,8.698134422E0,4.575319290E0
1.128901691E0,-8.858546019E-1,8.669404030E0,4.534617901E0
1.130752961E0,-9.050082564E-1,8.657433510E0,4.496310711E0
1.132837461E0,-8.930372596E-1,8.719682693E0,4.532223701E0
1.134587999E0,-8.834604025E-1,8.738836288E0,4.529829502E0
1.136988884E0,-9.074024558E-1,8.686163902E0,4.474762917E0
1.138636999E0,-9.481038451E-1,8.659827232E0,4.438849926E0
1.141033768E0,-1.010353088E0,8.729259491E0,4.345476151E0
1.142731614E0,-1.005564690E0,8.777143478E0,4.165910721E0
1.145209461E0,-9.911994934E-1,8.820239067E0,3.933673382E0
1.146849153E0,-1.003170490E0,8.913613319E0,3.758896589E0
1.149584768E0,-1.051054597E0,9.004592896E0,3.742137194E0
1.151235268E0,-1.067813993E0,8.959102631E0,3.813963413E0
1.153787696E0,-1.000776291E0,8.810662270E0,3.983951569E0
1.155180153E0,-8.547300100E-1,8.686163902E0,4.268861771E0
1.157856850E0,-7.230489254E-1,8.616731644E0,4.582501888E0
1.159068230E0,-6.560112834E-1,8.544905663E0,4.821922302E0
1.161960658E0,-6.536170840E-1,8.461109161E0,4.979939461E0
1.163454768E0,-6.895300746E-1,8.446743965E0,5.123591423E0
1.166064042E0,-7.852981687E-1,8.499416351E0,5.267243862E0
1.167270768E0,-9.457096457E-1,8.508993149E0,5.305551052E0
1.170167235E0,-1.089361787E0,8.501810074E0,5.260061264E0
1.171552499E0,-1.130063176E0,8.528146744E0,5.197812080E0
1.174196691E0,-1.065419793E0,8.556877136E0,5.097255230E0
1.175382845E0,-9.696516991E-1,8.564059258E0,4.958391666E0
1.178273081E0,-8.619126081E-1,8.535328865E0,4.805162907E0
1.179526922E0,-7.469909191E-1,8.547300339E0,4.707000732E0
1.182357004E0,-6.775590777E-1,8.599972725E0,4.668693542E0
1.183524768E0,-6.967126727E-1,8.621520042E0,4.589684486E0
1.186174999E0,-7.948749661E-1,8.626308441E0,4.453215122E0
1.187655768E0,-9.361328483E-1,8.693346024E0,4.340687752E0
1.190464384E0,-1.058237195E0,8.784325600E0,4.256890774E0
1.191991576E0,-1.139639974E0,8.829815865E0,4.185064793E0
1.194057037E0,-1.161187768E0,8.808267593E0,4.134786129E0
1.195812153E0,-1.108515382E0,8.784325600E0,4.125209332E0
1.198163730E0,-1.012747288E0,8.789113998E0,4.173093796E0
1.199860653E0,-8.978256583E-1,8.750806808E0,4.223371983E0
1.202373422E0,-7.685387731E-1,8.638279915E0,4.331110954E0
1.203960114E0,-7.517793179E-1,8.611943245E0,4.467580318E0
1.206373114E0,-8.020575643E-1,8.604761124E0,4.592078686E0
1.208069614E0,-8.978256583E-1,8.592789650E0,4.680664539E0
1.210539961E0,-9.816226959E-1,8.571242332E0,4.754884720E0
1.212332768E0,-1.019929886E0,8.580819130E0,4.838681698E0
1.214467461E0,-1.036689281E0,8.588001251E0,4.924872875E0
1.216206345E0,-1.027112484E0,8.528146744E0,4.953603268E0
1.218740230E0,-9.888052940E-1,8.475474358E0,4.963180065E0
1.220355691E0,-9.313444495E-1,8.465897560E0,4.996698856E0
1.222658076E0,-8.978256583E-1,8.475474358E0,4.982333660E0
1.224363307E0,-9.050082564E-1,8.492233276E0,4.898536682E0
1.226862345E0,-9.289502501E-1,8.516175270E0,4.788403511E0
1.228493114E0,-9.409212470E-1,8.561665535E0,4.709394932E0
1.231369576E0,-9.409212470E-1,8.602366447E0,4.654327869E0
1.232800691E0,-9.433154464E-1,8.599972725E0,4.580107689E0
1.235444619E0,-9.313444495E-1,8.602366447E0,4.493916512E0
1.236615730E0,-9.026140571E-1,8.633491516E0,4.407725334E0
1.239512388E0,-8.786720037E-1,8.676587105E0,4.328716755E0
1.240711576E0,-8.858546019E-1,8.698134422E0,4.271255970E0
1.243615504E0,-9.169792533E-1,8.710105896E0,4.235342979E0
1.244810384E0,-9.217676520E-1,8.726864815E0,4.220977783E0
1.247718657E0,-9.169792533E-1,8.736441612E0,4.216189384E0
1.248941576E0,-9.121908545E-1,8.724471092E0,4.240131378E0
1.251822388E0,-8.762778044E-1,8.693346024E0,4.309563160E0
1.253384230E0,-8.188169599E-1,8.655038834E0,4.422090530E0
1.255881311E0,-7.661445141E-1,8.616731644E0,4.544194698E0
1.257164499E0,-7.158663273E-1,8.578424454E0,4.659116745E0
1.259949927E0,-6.871358752E-1,8.554482460E0,4.788403511E0
1.261167807E0,-7.254431248E-1,8.525752068E0,4.946420670E0
1.264053850E0,-7.613561153E-1,8.511386871E0,4.996698856E0
1.265271037E0,-7.805097699E-1,8.511386871E0,5.001487255E0
1.267975422E0,-7.876923680E-1,8.518569946E0,5.003881454E0
1.269422999E0,-7.781155705E-1,8.518569946E0,5.015852451E0
1.272260388E0,-7.398083210E-1,8.511386871E0,5.013458252E0
1.273764576E0,-6.847416759E-1,8.513781548E0,4.991910458E0
1.275773614E0,-6.296750307E-1,8.520963669E0,4.939238071E0
1.277451884E0,-5.961562395E-1,8.535328865E0,4.888959885E0
1.279825922E0,-6.129156351E-1,8.556877136E0,4.850652695E0
1.281569768E0,-6.823474765E-1,8.580819130E0,4.786009312E0
1.284475696E0,-7.565677166E-1,8.626308441E0,4.687847137E0
1.285696461E0,-8.116343617E-1,8.686163902E0,4.570530891E0
1.288067653E0,-8.738836050E-1,8.743624687E0,4.462791920E0
1.289830153E0,-9.050082564E-1,8.784325600E0,4.398148537E0
1.292310922E0,-8.595184088E-1,8.801085472E0,4.364629745E0
1.294243922E0,-7.805097699E-1,8.762778282E0,4.326322556E0
1.296250768E0,-7.302315235E-1,8.710105896E0,4.295197964E0
1.297943153E0,-7.182605267E-1,8.710105896E0,4.323928356E0
1.300390114E0,-6.967126727E-1,8.722076416E0,4.407725334E0
1.302032499E0,-7.278373241E-1,8.702922821E0,4.501099110E0
1.304432345E0,-7.517793179E-1,8.659827232E0,4.551377296E0
1.306136422E0,-7.278373241E-1,8.638279915E0,4.616020679E0
1.308595922E0,-6.799532771E-1,8.628703117E0,4.742913723E0
1.310250153E0,-5.913678408E-1,8.568847656E0,4.874594688E0
1.312945230E0,-4.979939461E-1,8.497021675E0,4.963180065E0
1.314572614E0,-5.291185975E-1,8.480262756E0,4.977545261E0
1.317201272E0,-6.392518282E-1,8.537723541E0,4.965574265E0
1.318524153E0,-7.565677166E-1,8.626308441E0,4.955997467E0
1.321271196E0,-7.709329724E-1,8.667010307E0,4.896142483E0
1.322602460E0,-7.733271718E-1,8.657433510E0,4.807557106E0
1.325376196E0,-7.829039693E-1,8.614337921E0,4.707000732E0
1.326568076E0,-7.134721279E-1,8.619126320E0,4.647145271E0
1.329480542E0,-7.110779285E-1,8.678980827E0,4.659116745E0
1.330667230E0,-7.541735172E-1,8.678980827E0,4.596867085E0
1.333584772E0,-7.829039693E-1,8.657433510E0,4.472368717E0
1.334985307E0,-8.475474119E-1,8.700529099E0,4.398148537E0
1.337623926E0,-8.834604025E-1,8.762778282E0,4.357447147E0
1.338811576E0,-8.858546019E-1,8.772355080E0,4.319139957E0
1.341693619E0,-8.906430602E-1,8.724471092E0,4.276044369E0
1.343100614E0,-8.667010069E-1,8.693346024E0,4.225766182E0
1.345797619E0,-8.044517636E-1,8.726864815E0,4.223371983E0
1.347022884E0,-7.230489254E-1,8.748413086E0,4.276044369E0
1.349632922E0,-6.177040339E-1,8.669404030E0,4.338293552E0
1.351156345E0,-5.195417404E-1,8.585607529E0,4.441244125E0
1.353938695E0,-4.620809257E-1,8.573636055E0,4.592078686E0
1.355393230E0,-5.075707436E-1,8.595184326E0,4.764461517E0
1.357483076E0,-6.296750307E-1,8.576030731E0,4.898536682E0
1.359165960E0,-7.541735172E-1,8.540117264E0,4.989516258E0
1.361541999E0,-8.236053586E-1,8.554482460E0,5.049371243E0
1.363349845E0,-8.403648138E-1,8.568847656E0,5.054159641E0
1.365657422E0,-8.403648138E-1,8.540117264E0,5.018246651E0
1.367412191E0,-8.307880163E-1,8.528146744E0,5.015852451E0
1.369734076E0,-7.900865674E-1,8.532935143E0,5.001487255E0
1.371450999E0,-7.134721279E-1,8.530540466E0,4.927267075E0
1.373941576E0,-6.655880809E-1,8.525752068E0,4.800374508E0
1.375805191E0,-7.038952708E-1,8.614337921E0,4.546588898E0
1.377933422E0,-7.829039693E-1,8.700529099E0,4.541800499E0
1.379572422E0,-8.571242094E-1,8.731653214E0,4.323928356E0
1.382023614E0,-9.313444495E-1,8.741230011E0,4.278438568E0
1.383766114E0,-9.050082564E-1,8.796297073E0,4.103661537E0
1.386418807E0,-8.930372596E-1,8.870517731E0,4.144362926E0
1.388012037E0,-8.451532125E-1,8.841787338E0,4.204218388E0
1.390279191E0,-7.493851185E-1,8.738836288E0,4.060565948E0
1.392252037E0,-6.823474765E-1,8.729259491E0,4.254496574E0
1.394606807E0,-6.177040339E-1,8.722076416E0,4.273650169E0
1.396152345E0,-6.775590777E-1,8.722076416E0,4.374206543E0
1.398850234E0,-7.398083210E-1,8.671798706E0,4.544194698E0
1.400033691E0,-7.158663273E-1,8.645462036E0,4.534617901E0
1.402919080E0,-7.541735172E-1,8.681375504E0,4.786009312E0
1.404154614E0,-7.781155705E-1,8.619126320E0,4.759673119E0
1.407014307E0,-8.259995580E-1,8.559270859E0,4.891354084E0
1.408417653E0,-7.972691655E-1,8.542511940E0,4.991910458E0
1.411085234E0,-7.445967197E-1,8.513781548E0,4.977545261E0
1.412228576E0,-7.445967197E-1,8.530540466E0,5.008669853E0
1.415155003E0,-7.517793179E-1,8.506598473E0,4.860229492E0
1.416561922E0,-8.020575643E-1,8.549694061E0,4.910507679E0
1.419193772E0,-8.451532125E-1,8.602366447E0,4.857835293E0
1.420375153E0,-8.882488012E-1,8.599972725E0,4.774038315E0
1.423262849E0,-9.145850539E-1,8.623914719E0,4.685452938E0
1.424544499E0,-9.121908545E-1,8.667010307E0,4.594472885E0
1.427366734E0,-8.978256583E-1,8.722076416E0,4.608838081E0
1.428545345E0,-8.547300100E-1,8.705317497E0,4.522646904E0
1.431209037E0,-8.068459630E-1,8.671798706E0,4.517858505E0
1.432652883E0,-7.565677166E-1,8.710105896E0,4.381389141E0
1.435573464E0,-7.781155705E-1,8.791508675E0,4.436455727E0
1.437024807E0,-7.733271718E-1,8.769960403E0,4.405331135E0
1.439091960E0,-7.493851185E-1,8.746018410E0,4.477157116E0
1.440775653E0,-6.560112834E-1,8.741230011E0,4.539406300E0
1.443149576E0,-5.746083856E-1,8.746018410E0,4.546588898E0
1.444871768E0,-5.602431893E-1,8.736441612E0,4.750096321E0
1.447244768E0,-4.716577232E-1,8.650250435E0,4.656722069E0
1.448981922E0,-4.237737060E-1,8.655038834E0,4.814739704E0
1.451358883E0,-3.734954596E-1,8.657433510E0,4.793191910E0
1.453106307E0,-3.926490843E-1,8.633491516E0,4.786009312E0
1.455587383E0,-4.381389022E-1,8.638279915E0,4.874594688E0
1.457354460E0,-4.501099288E-1,8.599972725E0,4.817133904E0
1.459500153E0,-4.884171486E-1,8.621520042E0,4.886565685E0
1.461190037E0,-5.171475410E-1,8.621520042E0,4.766855717E0
1.463546845E0,-5.626373887E-1,8.626308441E0,4.764461517E0
1.465404345E0,-5.770025849E-1,8.657433510E0,4.742913723E0
1.467798268E0,-5.650315881E-1,8.633491516E0,4.692635536E0
1.469594153E0,-5.602431893E-1,8.621520042E0,4.647145271E0
1.471911307E0,-5.961562395E-1,8.621520042E0,4.532223701E0
1.473504499E0,-6.536170840E-1,8.662221909E0,4.529829502E0
1.476235730E0,-6.991068721E-1,8.678980827E0,4.477157116E0
1.477794999E0,-7.350199223E-1,8.655038834E0,4.503493309E0
1.480473922E0,-7.398083210E-1,8.631096840E0,4.477157116E0
1.481624883E0,-7.565677166E-1,8.640673637E0,4.513070107E0
1.484535653E0,-7.781155705E-1,8.657433510E0,4.582501888E0
1.485735114E0,-7.709329724E-1,8.626308441E0,4.618414879E0
1.488634537E0,-7.326257229E-1,8.602366447E0,4.692635536E0
1.489906614E0,-6.943184733E-1,8.583212852E0,4.692635536E0
1.492748849E0,-6.943184733E-1,8.590395927E0,4.738125324E0
1.493939883E0,-7.062895298E-1,8.599972725E0,4.771644115E0
1.496851233E0,-6.751648784E-1,8.576030731E0,4.826710701E0
1.498365383E0,-6.440402865E-1,8.576030731E0,4.809951305E0
1.500914310E0,-6.560112834E-1,8.595184326E0,4.800374508E0
1.502169191E0,-6.943184733E-1,8.621520042E0,4.790797710E0
1.504954307E0,-7.182605267E-1,8.609549522E0,4.778826714E0
1.506168268E0,-7.110779285E-1,8.599972725E0,4.733336926E0
1.509065306E0,-7.278373241E-1,8.628703117E0,4.673481941E0
1.510265076E0,-7.805097699E-1,8.676587105E0,4.601655483E0
1.512903653E0,-8.307880163E-1,8.702922821E0,4.517858505E0
1.514362422E0,-8.475474119E-1,8.690952301E0,4.477157116E0
1.517264345E0,-8.188169599E-1,8.671798706E0,4.429273129E0
1.518641422E0,-7.948749661E-1,8.688557625E0,4.405331135E0
1.520776306E0,-7.996633649E-1,8.712499619E0,4.378994942E0
1.522480191E0,-8.307880163E-1,8.705317497E0,4.386177540E0
1.524849306E0,-8.403648138E-1,8.702922821E0,4.426878929E0
1.526569230E0,-8.451532125E-1,8.695740700E0,4.460397720E0
1.529498733E0,-8.738836050E-1,8.690952301E0,4.491522312E0
1.530735845E0,-9.097966552E-1,8.688557625E0,4.520252705E0
1.533267345E0,-9.169792533E-1,8.695740700E0,4.582501888E0
1.534806499E0,-8.786720037E-1,8.686163902E0,4.649539471E0
1.537404499E0,-8.307880163E-1,8.640673637E0,4.685452938E0
1.539090345E0,-7.876923680E-1,8.604761124E0,4.692635536E0
1.541234268E0,-7.469909191E-1,8.611943245E0,4.733336926E0
1.542924537E0,-7.086837292E-1,8.621520042E0,4.788403511E0
1.545317768E0,-6.799532771E-1,8.588001251E0,4.790797710E0
1.547000576E0,-6.775590777E-1,8.573636055E0,4.750096321E0
1.549408576E0,-7.182605267E-1,8.614337921E0,4.704606533E0
1.551126922E0,-7.996633649E-1,8.667010307E0,4.687847137E0
1.553588537E0,-8.547300100E-1,8.662221909E0,4.654327869E0
1.555241383E0,-8.236053586E-1,8.657433510E0,4.611232281E0
1.557977499E0,-8.044517636E-1,8.676587105E0,4.544194698E0
1.559602883E0,-7.948749661E-1,8.671798706E0,4.477157116E0
1.562184191E0,-7.709329724E-1,8.659827232E0,4.434061527E0
1.563371999E0,-7.422025204E-1,8.652645111E0,4.429273129E0
1.566273614E0,-7.254431248E-1,8.662221909E0,4.412513733E0
1.567456960E0,-7.613561153E-1,8.695740700E0,4.393360138E0
1.570376502E0,-8.140285611E-1,8.705317497E0,4.374206543E0
1.571588153E0,-8.379706144E-1,8.698134422E0,4.395754337E0
1.574478771E0,-8.164227605E-1,8.707711220E0,4.453215122E0
1.575676999E0,-7.972691655E-1,8.693346024E0,4.467580318E0
1.578581771E0,-7.972691655E-1,8.667010307E0,4.479551315E0
1.580108999E0,-7.924807668E-1,8.657433510E0,4.515464306E0
1.582619156E0,-7.565677166E-1,8.657433510E0,4.584896088E0
1.583779153E0,-7.230489254E-1,8.645462036E0,4.642356873E0
1.586687002E0,-7.254431248E-1,8.595184326E0,4.659116745E0
1.587892922E0,-7.445967197E-1,8.585607529E0,4.666299343E0
1.590790156E0,-7.661445141E-1,8.631096840E0,4.728548527E0
1.592022422E0,-7.829039693E-1,8.640673637E0,4.790797710E0
1.594668922E0,-7.781155705E-1,8.592789650E0,4.781220913E0
1.596103037E0,-7.637503147E-1,8.568847656E0,4.759673119E0
1.598995848E0,-7.661445141E-1,8.590395927E0,4.750096321E0
1.600466383E0,-7.757213712E-1,8.614337921E0,4.723760128E0
1.602555537E0,-7.661445141E-1,8.597578049E0,4.695029736E0
1.604253306E0,-7.589619160E-1,8.592789650E0,4.639962673E0
1.606611076E0,-7.924807668E-1,8.635885239E0,4.599261284E0
1.608450230E0,-8.451532125E-1,8.681375504E0,4.553771496E0
1.610725306E0,-8.762778044E-1,8.688557625E0,4.510675907E0
1.612401422E0,-8.643068075E-1,8.676587105E0,4.498704910E0
1.614806653E0,-8.164227605E-1,8.688557625E0,4.474762917E0
1.616683499E0,-8.236053586E-1,8.693346024E0,4.446032524E0
1.619002691E0,-8.188169599E-1,8.688557625E0,4.419696331E0
1.620887383E0,-7.876923680E-1,8.707711220E0,4.458003521E0
1.622980153E0,-7.733271718E-1,8.714894295E0,4.505887508E0
1.624662768E0,-7.900865674E-1,8.693346024E0,4.513070107E0
1.626999576E0,-8.188169599E-1,8.669404030E0,4.525041103E0
1.628939460E0,-8.259995580E-1,8.683769226E0,4.558559895E0
1.631141922E0,-8.092401624E-1,8.690952301E0,4.613626480E0
1.632780653E0,-7.757213712E-1,8.659827232E0,4.627991676E0
1.635231960E0,-7.565677166E-1,8.633491516E0,4.630385876E0
1.636860422E0,-7.517793179E-1,8.657433510E0,4.656722069E0
1.639718229E0,-7.493851185E-1,8.690952301E0,4.683058739E0
1.641135999E0,-7.350199223E-1,8.669404030E0,4.666299343E0
1.643794156E0,-7.278373241E-1,8.626308441E0,4.623203278E0
1.645037229E0,-7.445967197E-1,8.638279915E0,4.616020679E0
1.647861156E0,-7.876923680E-1,8.678980827E0,4.606443882E0
1.649077537E0,-8.355764151E-1,8.700529099E0,4.580107689E0
1.651948422E0,-8.451532125E-1,8.690952301E0,4.544194698E0
1.653150191E0,-8.379706144E-1,8.695740700E0,4.505887508E0
1.656065848E0,-8.499416113E-1,8.719682693E0,4.493916512E0
1.657265499E0,-8.547300100E-1,8.710105896E0,4.479551315E0
1.660168079E0,-8.259995580E-1,8.676587105E0,4.460397720E0
1.661516960E0,-7.829039693E-1,8.664615631E0,4.431667328E0
1.664205579E0,-7.829039693E-1,8.698134422E0,4.410119534E0
1.665392037E0,-8.379706144E-1,8.722076416E0,4.388571739E0
1.668273079E0,-8.834604025E-1,8.719682693E0,4.376600742E0
1.669578191E0,-8.858546019E-1,8.726864815E0,4.405331135E0
1.672375733E0,-8.595184088E-1,8.722076416E0,4.448426723E0
1.673846614E0,-8.331822157E-1,8.686163902E0,4.465186119E0
1.676377460E0,-8.259995580E-1,8.655038834E0,4.477157116E0
1.677779422E0,-7.972691655E-1,8.650250435E0,4.513070107E0
1.680580614E0,-7.757213712E-1,8.664615631E0,4.539406300E0
1.682029806E0,-7.852981687E-1,8.664615631E0,4.534617901E0
1.684097768E0,-8.259995580E-1,8.667010307E0,4.546588898E0
1.685911114E0,-8.499416113E-1,8.671798706E0,4.565742493E0
1.688198499E0,-8.403648138E-1,8.671798706E0,4.584896088E0
1.689940537E0,-8.259995580E-1,8.652645111E0,4.587290287E0
1.692292153E0,-8.283938169E-1,8.628703117E0,4.587290287E0
1.694072499E0,-8.595184088E-1,8.643068314E0,4.606443882E0
1.696470614E0,-8.906430602E-1,8.662221909E0,4.601655483E0
1.698121229E0,-9.074024558E-1,8.659827232E0,4.572925091E0
1.700687037E0,-9.050082564E-1,8.657433510E0,4.560954094E0
1.702445229E0,-9.026140571E-1,8.667010307E0,4.556165695E0
1.704585537E0,-9.074024558E-1,8.674192429E0,4.560954094E0
1.706327614E0,-9.050082564E-1,8.664615631E0,4.551377296E0
1.708715114E0,-8.834604025E-1,8.659827232E0,4.548983097E0
1.710332653E0,-8.547300100E-1,8.669404030E0,4.563348293E0
1.712711153E0,-8.547300100E-1,8.676587105E0,4.582501888E0
1.714416076E0,-8.595184088E-1,8.669404030E0,4.584896088E0
1.716890422E0,-8.403648138E-1,8.671798706E0,4.582501888E0
1.718527614E0,-8.164227605E-1,8.674192429E0,4.589684486E0
1.721265037E0,-7.972691655E-1,8.669404030E0,4.596867085E0
1.722824922E0,-8.020575643E-1,8.664615631E0,4.606443882E0
1.725486848E0,-8.116343617E-1,8.674192429E0,4.616020679E0
1.726662383E0,-7.996633649E-1,8.678980827E0,4.613626480E0
1.729554425E0,-7.637503147E-1,8.674192429E0,4.599261284E0
1.730738614E0,-7.350199223E-1,8.671798706E0,4.594472885E0
1.733657194E0,-7.302315235E-1,8.659827232E0,4.589684486E0
1.734854537E0,-7.350199223E-1,8.659827232E0,4.587290287E0
1.737759886E0,-7.302315235E-1,8.686163902E0,4.565742493E0
1.738968883E0,-7.445967197E-1,8.686163902E0,4.539406300E0
1.741862386E0,-7.805097699E-1,8.681375504E0,4.532223701E0
1.743362845E0,-7.900865674E-1,8.681375504E0,4.534617901E0
1.745919925E0,-7.781155705E-1,8.688557625E0,4.534617901E0
1.747069922E0,-7.661445141E-1,8.676587105E0,4.520252705E0
1.749986963E0,-7.565677166E-1,8.659827232E0,4.517858505E0
1.751246037E0,-7.613561153E-1,8.652645111E0,4.546588898E0
1.754089579E0,-7.757213712E-1,8.655038834E0,4.565742493E0
1.755275806E0,-7.829039693E-1,8.657433510E0,4.570530891E0
1.757945768E0,-7.805097699E-1,8.647856712E0,4.570530891E0
1.759411883E0,-7.805097699E-1,8.635885239E0,4.572925091E0
1.762291845E0,-7.972691655E-1,8.640673637E0,4.594472885E0
1.763655652E0,-8.068459630E-1,8.650250435E0,4.611232281E0
1.765805922E0,-8.068459630E-1,8.640673637E0,4.599261284E0
1.767502037E0,-8.116343617E-1,8.628703117E0,4.565742493E0
1.769903614E0,-8.068459630E-1,8.640673637E0,4.563348293E0
1.771638499E0,-8.188169599E-1,8.659827232E0,4.580107689E0
1.774509040E0,-8.355764151E-1,8.657433510E0,4.570530891E0
1.775752883E0,-8.475474119E-1,8.655038834E0,4.532223701E0
1.778121499E0,-8.619126081E-1,8.667010307E0,4.496310711E0
1.779825537E0,-8.834604025E-1,8.683769226E0,4.493916512E0
1.782327460E0,-9.145850539E-1,8.681375504E0,4.484339714E0
1.784108191E0,-9.289502501E-1,8.667010307E0,4.479551315E0
1.786283537E0,-9.241618514E-1,8.657433510E0,4.472368717E0
1.788088999E0,-9.002198577E-1,8.664615631E0,4.474762917E0
1.790376114E0,-9.026140571E-1,8.662221909E0,4.486733913E0
1.792104037E0,-9.313444495E-1,8.643068314E0,4.498704910E0
1.794448537E0,-9.504981041E-1,8.659827232E0,4.534617901E0
1.796177960E0,-9.552865028E-1,8.669404030E0,4.537012100E0
1.798730268E0,-9.648633003E-1,8.662221909E0,4.532223701E0
1.800379691E0,-9.624691010E-1,8.647856712E0,4.553771496E0
1.803072960E0,-9.385270476E-1,8.640673637E0,4.575319290E0
1.804710652E0,-9.145850539E-1,8.631096840E0,4.575319290E0
1.807219924E0,-8.954314590E-1,8.621520042E0,4.568136692E0
1.808399922E0,-8.858546019E-1,8.628703117E0,4.572925091E0
1.811287117E0,-8.930372596E-1,8.655038834E0,4.584896088E0
1.812587229E0,-9.121908545E-1,8.664615631E0,4.570530891E0
1.815353924E0,-9.241618514E-1,8.657433510E0,4.520252705E0
1.816539729E0,-9.265560508E-1,8.671798706E0,4.486733913E0
1.819422463E0,-9.385270476E-1,8.695740700E0,4.484339714E0
1.820660537E0,-9.576807022E-1,8.700529099E0,4.472368717E0
1.823525540E0,-9.720458984E-1,8.678980827E0,4.443638325E0
1.824879768E0,-9.576807022E-1,8.681375504E0,4.402936935E0
1.827562655E0,-9.337386489E-1,8.717288017E0,4.383783340E0
1.828711960E0,-9.385270476E-1,8.729259491E0,4.374206543E0
1.831626383E0,-9.528923035E-1,8.707711220E0,4.364629745E0
1.832827422E0,-9.409212470E-1,8.700529099E0,4.371812344E0
1.835733271E0,-9.145850539E-1,8.722076416E0,4.371812344E0
1.836952152E0,-9.097966552E-1,8.734047890E0,4.371812344E0
1.839592229E0,-8.092401624E-1,8.513781548E0,3.734954596E0
1.841156768E0,-3.351882398E-1,7.805097580E0,-5.434837937E-1
1.843886960E0,1.867477298E-1,1.025197124E1,-1.527500629E0
1.845360114E0,4.094084799E-1,1.261983681E1,2.355894566E0
1.847474306E0,-1.680729628E0,1.063025570E1,4.637568474E0
1.849175768E0,-4.053383350E0,7.237671852E0,4.692635536E0
1.851545768E0,-3.251325846E0,6.672640324E0,5.300762653E0
1.853276575E0,-1.058237195E0,8.678980827E0,8.192957878E0
1.855673114E0,2.442085743E-1,7.582436562E0,8.973467827E0
1.857367152E0,7.517793179E-1,6.088454723E0,7.668628216E0
1.859769460E0,1.053448796E0,6.593631268E0,7.378929615E0
1.861465499E0,3.806780577E-1,8.001421928E0,7.613561630E0
1.863984268E0,-1.036689281E0,8.592789650E0,6.936002254E0
1.866219768E0,-2.188300371E0,8.482656479E0,5.722142220E0
1.867928652E0,-2.477998734E0,8.549694061E0,5.099649429E0
1.869659075E0,-2.224213362E0,8.882488251E0,5.109226227E0
1.871978691E0,-1.881842494E0,8.975862503E0,4.699818134E0
1.873727999E0,-1.587355733E0,8.935160637E0,3.517082214E0
1.876169460E0,-1.149216771E0,9.220070839E0,2.360682964E0
1.877798268E0,-4.118026793E-1,9.493009567E0,1.599326730E0
1.880296152E0,2.011129409E-1,9.380482674E0,1.338358760E0
1.881900999E0,2.370259613E-1,9.109937668E0,1.580173135E0
1.884608729E0,-1.939303428E-1,9.193734169E0,2.111685991E0
1.886459806E0,-8.068459630E-1,9.545681953E0,2.561795712E0
1.888842001E0,-1.453280449E0,9.519346237E0,2.640804529E0
1.890016191E0,-1.912967205E0,9.191340446E0,2.932897091E0
1.892910886E0,-1.810016513E0,9.109937668E0,4.055777550E0
1.894098537E0,-1.175553083E0,9.033323288E0,5.269638062E0
1.897014424E0,-5.770025849E-1,8.434772491E0,5.461174011E0
1.898278960E0,-2.418143749E-1,7.826645374E0,4.996698856E0
1.901117924E0,-3.830722719E-2,7.967903137E0,5.082890034E0
1.902337768E0,-5.746084079E-2,8.559270859E0,5.925649166E0
1.905221116E0,-4.548983276E-1,8.628703117E0,6.581660271E0
1.906729806E0,-1.022324085E0,8.008605003E0,6.622362137E0
1.909257347E0,-1.374271750E0,7.556100368E0,6.629544735E0
1.910518191E0,-1.338358760E0,7.809885979E0,6.979097843E0
1.913325847E0,-1.170764685E0,8.255207062E0,7.007828236E0
1.914536575E0,-1.115697980E0,8.315062523E0,6.186617374E0
1.917429116E0,-9.265560508E-1,8.161833763E0,4.508281708E0
1.918622383E0,-7.062895298E-1,8.552088737E0,4.101267338E0
1.921351999E0,-7.589619160E-1,9.045293808E0,3.876212597E0
1.922725922E0,-1.146822572E0,9.196128845E0,3.213018656E0
1.925616499E0,-1.493981838E0,9.109937668E0,2.389413357E0
1.927197652E0,-1.465251446E0,9.160215378E0,2.080561161E0
1.929204999E0,-1.182735682E0,9.402029991E0,2.403778553E0
1.930870922E0,-9.720458984E-1,9.495404243E0,2.760514498E0
1.933257460E0,-9.193734527E-1,9.308655739E0,2.767697096E0
1.935007422E0,-8.523358107E-1,9.085995674E0,2.719813108E0
1.937364960E0,-7.278373241E-1,9.011775017E0,2.964021683E0
1.939068422E0,-6.727706790E-1,8.973467827E0,3.471592426E0
1.941458191E0,-7.398083210E-1,8.848969460E0,4.000710964E0
1.943169268E0,-8.140285611E-1,8.695740700E0,4.477157116E0
1.945652422E0,-8.667010069E-1,8.554482460E0,5.008669853E0
1.947461537E0,-9.792284966E-1,8.379706383E0,5.590460777E0
1.949597691E0,-1.098938584E0,8.192957878E0,6.098031521E0
1.951280191E0,-1.089361787E0,8.101978302E0,6.423643112E0
1.953677114E0,-9.193734527E-1,8.130708694E0,6.536170483E0
1.955444691E0,-7.374141216E-1,8.121131897E0,6.433219910E0
1.957783345E0,-6.967126727E-1,8.078036308E0,6.181828976E0
1.959512691E0,-8.116343617E-1,8.121131897E0,5.856217384E0
1.962011614E0,-1.005564690E0,8.279149055E0,5.446808815E0
1.963624922E0,-1.132457376E0,8.444349289E0,4.963180065E0
1.966324075E0,-1.125274777E0,8.573636055E0,4.525041103E0
1.967887922E0,-1.070208192E0,8.714894295E0,4.206612587E0
1.970551155E0,-1.077390790E0,8.880094528E0,3.883395195E0
1.971704268E0,-1.177947283E0,9.014169693E0,3.430891037E0
1.974619655E0,-1.285686255E0,9.090784073E0,2.796427488E0
1.975813114E0,-1.235408068E0,9.141061783E0,2.700659513E0
1.978722885E0,-1.161187768E0,9.224859238E0,2.772485495E0
1.979970691E0,-1.146822572E0,9.267954826E0,2.803610086E0
1.982825847E0,-1.139639974E0,9.224859238E0,2.834734917E0
1.984044922E0,-1.051054597E0,9.102754593E0,3.088520288E0
1.986928770E0,-8.906430602E-1,8.942343712E0,3.653551817E0
1.988450383E0,-7.493851185E-1,8.784325600E0,4.292803764E0
1.990987885E0,-6.727706790E-1,8.652645111E0,4.764461517E0
1.992130460E0,-6.344634295E-1,8.556877136E0,5.046977043E0
1.995055924E0,-6.177040339E-1,8.480262756E0,5.286397457E0
1.996671345E0,-6.799532771E-1,8.427590370E0,5.549759388E0
1.999159731E0,-8.331822157E-1,8.370129585E0,5.758055210E0
2.000339883E0,-9.600749016E-1,8.286332130E0,5.849034786E0
2.002990998E0,-9.504981041E-1,8.238448143E0,5.884947777E0
2.004466460E0,-8.355764151E-1,8.262390137E0,5.899312973E0
2.007323268E0,-7.709329724E-1,8.305485725E0,5.813121796E0
2.008733575E0,-8.475474119E-1,8.312667847E0,5.544970989E0
2.010860768E0,-9.457096457E-1,8.310274124E0,5.169081688E0
2.012557575E0,-9.672574997E-1,8.408436775E0,4.888959885E0
2.014956383E0,-9.792284966E-1,8.590395927E0,4.702212334E0
2.016658268E0,-1.086967587E0,8.712499619E0,4.378994942E0
2.019579962E0,-1.256955862E0,8.786720276E0,3.892971992E0
2.020815229E0,-1.319205165E0,8.918401718E0,3.481169224E0
2.023168345E0,-1.197100878E0,9.064447403E0,3.327940464E0
2.024884075E0,-9.888052940E-1,9.050082207E0,3.371036053E0
2.027400537E0,-7.445967197E-1,8.848969460E0,3.459621429E0
2.029168498E0,-6.847416759E-1,8.916007042E0,3.495534420E0
2.031329037E0,-6.895300746E-1,9.052476883E0,3.538630009E0
2.033013652E0,-7.493851185E-1,9.030928612E0,3.620033026E0
2.035373768E0,-8.164227605E-1,8.896853447E0,3.845088005E0
2.037118422E0,-8.451532125E-1,8.839392662E0,4.213795185E0
2.039535537E0,-8.188169599E-1,8.820239067E0,4.572925091E0
2.041249691E0,-7.302315235E-1,8.686163902E0,4.805162907E0
2.043663460E0,-5.937620401E-1,8.511386871E0,4.984727859E0
2.045355729E0,-5.099649429E-1,8.453926086E0,5.207388878E0
2.048043729E0,-5.602431893E-1,8.446743965E0,5.403713226E0
2.049685806E0,-6.823474765E-1,8.358158112E0,5.482721806E0
2.052295231E0,-7.829039693E-1,8.279149055E0,5.518634796E0
2.053455691E0,-8.810662031E-1,8.362946510E0,5.571307182E0
2.056360960E0,-1.077390790E0,8.497021675E0,5.470750809E0
2.057557114E0,-1.285686255E0,8.511386871E0,5.161899090E0
2.060448575E0,-1.300051570E0,8.473079681E0,4.872200489E0
2.061656075E0,-1.103726983E0,8.530540466E0,4.821922302E0
2.064568693E0,-8.978256583E-1,8.590395927E0,4.824316502E0
2.065776460E0,-8.379706144E-1,8.542511940E0,4.596867085E0
2.068672154E0,-8.714894056E-1,8.554482460E0,4.237737179E0
2.070089614E0,-8.930372596E-1,8.743624687E0,3.981557369E0
2.072723385E0,-9.217676520E-1,8.944737434E0,3.881000996E0
2.073891575E0,-1.000776291E0,8.937555313E0,3.811569214E0
2.076792462E0,-1.046266198E0,8.836998940E0,3.742137194E0
2.078083921E0,-9.911994934E-1,8.904036522E0,3.801992416E0
2.080896616E0,-8.810662031E-1,9.018958092E0,3.892971992E0
2.082087691E0,-7.709329724E-1,8.942343712E0,3.900154591E0
2.084762729E0,-6.033388376E-1,8.736441612E0,4.022258759E0
2.086203152E0,-5.339069963E-1,8.760383606E0,4.290409565E0
2.089104116E0,-5.817909837E-1,8.762778282E0,4.525041103E0
2.090517691E0,-6.991068721E-1,8.652645111E0,4.635174274E0
2.092645652E0,-8.212111592E-1,8.597578049E0,4.723760128E0
2.094381421E0,-9.361328483E-1,8.674192429E0,4.862623692E0
2.096711383E0,-1.027112484E0,8.690952301E0,4.967968464E0
2.098421691E0,-1.010353088E0,8.549694061E0,5.025429249E0
2.100807268E0,-8.595184088E-1,8.434772491E0,5.152322292E0
2.102519191E0,-7.254431248E-1,8.451532364E0,5.274426460E0
2.104896421E0,-7.589619160E-1,8.473079681E0,5.164293289E0
2.106670998E0,-8.906430602E-1,8.437167168E0,4.876988888E0
2.109115998E0,-9.720458984E-1,8.487444878E0,4.697423935E0
2.111245729E0,-1.019929886E0,8.645462036E0,4.692635536E0
2.113072883E0,-1.146822572E0,8.705317497E0,4.627991676E0
2.114744383E0,-1.307234168E0,8.645462036E0,4.407725334E0
2.117138460E0,-1.338358760E0,8.674192429E0,4.232948780E0
2.118849114E0,-1.225831270E0,8.817844391E0,4.177882195E0
2.121268498E0,-1.096544385E0,8.863334656E0,4.141968727E0
2.122949845E0,-9.935936928E-1,8.736441612E0,4.029441357E0
2.125438537E0,-9.002198577E-1,8.702922821E0,3.957615376E0
2.127102037E0,-8.451532125E-1,8.836998940E0,4.007893562E0
2.129820768E0,-8.810662031E-1,8.899248123E0,4.024652958E0
2.131349768E0,-9.696516991E-1,8.827422142E0,3.983951569E0
2.134009614E0,-1.022324085E0,8.793902397E0,4.007893562E0
2.135182306E0,-1.010353088E0,8.865729332E0,4.170699596E0
2.138089346E0,-9.696516991E-1,8.870517731E0,4.376600742E0
2.139277229E0,-8.978256583E-1,8.717288017E0,4.501099110E0
2.142178268E0,-8.188169599E-1,8.580819130E0,4.625597477E0
2.143382960E0,-7.709329724E-1,8.611943245E0,4.750096321E0
2.146297231E0,-8.164227605E-1,8.607154846E0,4.738125324E0
2.147501691E0,-8.619126081E-1,8.549694061E0,4.738125324E0
2.150401308E0,-9.050082564E-1,8.559270859E0,4.833893299E0
2.151756268E0,-9.983820915E-1,8.590395927E0,4.884171486E0
2.154432844E0,-1.101332784E0,8.559270859E0,4.819528103E0
2.155593691E0,-1.113303781E0,8.518569946E0,4.750096321E0
2.158487460E0,-1.027112484E0,8.549694061E0,4.776432514E0
2.159679652E0,-9.624691010E-1,8.588001251E0,4.821922302E0
2.162604768E0,-9.768342972E-1,8.556877136E0,4.721365929E0
2.163809729E0,-1.022324085E0,8.542511940E0,4.544194698E0
2.166503691E0,-1.051054597E0,8.631096840E0,4.458003521E0
2.167896383E0,-1.067813993E0,8.743624687E0,4.429273129E0
2.170750614E0,-1.091755986E0,8.746018410E0,4.352658749E0
2.172334191E0,-1.089361787E0,8.702922821E0,4.247313976E0
2.174329960E0,-1.017535686E0,8.722076416E0,4.235342979E0
2.176033998E0,-9.217676520E-1,8.765172005E0,4.314351559E0
2.178415652E0,-8.547300100E-1,8.734047890E0,4.367023945E0
2.180170806E0,-8.259995580E-1,8.671798706E0,4.359841347E0
2.182515191E0,-7.996633649E-1,8.693346024E0,4.343081951E0
2.184237191E0,-7.876923680E-1,8.772355080E0,4.357447147E0
2.186606498E0,-8.164227605E-1,8.789113998E0,4.378994942E0
2.188327883E0,-8.643068075E-1,8.731653214E0,4.395754337E0
2.190835537E0,-8.978256583E-1,8.702922821E0,4.431667328E0
2.192604268E0,-9.074024558E-1,8.710105896E0,4.455609322E0
2.194746691E0,-8.906430602E-1,8.700529099E0,4.481945515E0
2.196496191E0,-8.475474119E-1,8.655038834E0,4.546588898E0
2.198825152E0,-8.283938169E-1,8.609549522E0,4.642356873E0
2.200629844E0,-8.690952063E-1,8.592789650E0,4.687847137E0
2.202972691E0,-9.983820915E-1,8.604761124E0,4.616020679E0
2.204655768E0,-1.070208192E0,8.621520042E0,4.582501888E0
2.207107575E0,-1.118092179E0,8.626308441E0,4.596867085E0
2.208892306E0,-1.151610970E0,8.626308441E0,4.608838081E0
2.211495075E0,-1.144428372E0,8.621520042E0,4.560954094E0
2.213061537E0,-1.094150186E0,8.609549522E0,4.513070107E0
2.215708729E0,-1.036689281E0,8.592789650E0,4.532223701E0
2.216881614E0,-1.007958889E0,8.585607529E0,4.575319290E0
2.219797000E0,-1.022324085E0,8.602366447E0,4.553771496E0
2.220959421E0,-1.041477680E0,8.631096840E0,4.460397720E0
2.223899154E0,-1.055842996E0,8.678980827E0,4.383783340E0
2.225085537E0,-1.084573388E0,8.734047890E0,4.376600742E0
2.227973229E0,-1.125274777E0,8.748413086E0,4.378994942E0
2.229157960E0,-1.115697980E0,8.719682693E0,4.331110954E0
2.232103000E0,-1.029506683E0,8.695740700E0,4.273650169E0
2.233573075E0,-9.050082564E-1,8.717288017E0,4.283226967E0
2.236160731E0,-8.188169599E-1,8.743624687E0,4.343081951E0
2.237381960E0,-8.307880163E-1,8.712499619E0,4.359841347E0
2.240208729E0,-8.954314590E-1,8.667010307E0,4.304774761E0
2.241403768E0,-9.504981041E-1,8.698134422E0,4.278438568E0
2.244320191E0,-9.959878922E-1,8.769960403E0,4.331110954E0
2.245499652E0,-1.067813993E0,8.769960403E0,4.381389141E0
2.248172652E0,-1.137245774E0,8.702922821E0,4.390965939E0
2.249651268E0,-1.122880578E0,8.669404030E0,4.390965939E0
2.252509075E0,-1.034295082E0,8.700529099E0,4.443638325E0
2.253873652E0,-9.720458984E-1,8.674192429E0,4.527435303E0
2.256017152E0,-9.672574997E-1,8.571242332E0,4.592078686E0
2.257761614E0,-9.792284966E-1,8.535328865E0,4.649539471E0
2.260096191E0,-1.007958889E0,8.635885239E0,4.659116745E0
2.261823114E0,-1.063025594E0,8.631096840E0,4.608838081E0
2.264751000E0,-1.122880578E0,8.597578049E0,4.608838081E0
2.265962767E0,-1.144428372E0,8.640673637E0,4.668693542E0
2.268376421E0,-1.113303781E0,8.676587105E0,4.680664539E0
2.270074806E0,-1.041477680E0,8.623914719E0,4.601655483E0
2.272668614E0,-9.457096457E-1,8.590395927E0,4.534617901E0
2.274318921E0,-8.882488012E-1,8.638279915E0,4.548983097E0
2.276482883E0,-9.121908545E-1,8.683769226E0,4.534617901E0
2.278174383E0,-9.768342972E-1,8.669404030E0,4.424484730E0
2.280530306E0,-9.959878922E-1,8.676587105E0,4.326322556E0
2.282284537E0,-9.959878922E-1,8.772355080E0,4.326322556E0
2.284651883E0,-1.043871999E0,8.841787338E0,4.357447147E0
2.286373537E0,-1.094150186E0,8.772355080E0,4.292803764E0
2.289122998E0,-1.034295082E0,8.693346024E0,4.213795185E0
2.290475575E0,-8.858546019E-1,8.734047890E0,4.264073372E0
2.293205691E0,-8.020575643E-1,8.772355080E0,4.357447147E0
2.294833306E0,-8.475474119E-1,8.688557625E0,4.369418144E0
2.297430961E0,-9.241618514E-1,8.619126320E0,4.338293552E0
2.298580806E0,-9.504981041E-1,8.693346024E0,4.362235546E0
2.301497998E0,-9.911994934E-1,8.774748802E0,4.426878929E0
2.302807306E0,-1.070208192E0,8.719682693E0,4.458003521E0
2.305600614E0,-1.127668977E0,8.611943245E0,4.498704910E0
2.306854306E0,-1.110909581E0,8.619126320E0,4.587290287E0
2.309693998E0,-1.029506683E0,8.667010307E0,4.630385876E0
2.310965152E0,-9.457096457E-1,8.621520042E0,4.580107689E0
2.313808576E0,-8.906430602E-1,8.556877136E0,4.568136692E0
2.315171344E0,-9.074024558E-1,8.638279915E0,4.625597477E0
2.317847269E0,-9.385270476E-1,8.674192429E0,4.556165695E0
2.319004998E0,-9.504981041E-1,8.659827232E0,4.484339714E0
2.321916346E0,-9.672574997E-1,8.669404030E0,4.376600742E0
2.323146614E0,-1.017535686E0,8.769960403E0,4.436455727E0
2.326008883E0,-1.063025594E0,8.781931877E0,4.393360138E0
2.327203267E0,-1.017535686E0,8.707711220E0,4.266467571E0
2.329842691E0,-8.906430602E-1,8.712499619E0,4.225766182E0
2.331312075E0,-8.331822157E-1,8.801085472E0,4.292803764E0
2.334183729E0,-9.074024558E-1,8.805873871E0,4.299986362E0
2.335574460E0,-9.888052940E-1,8.734047890E0,4.194641590E0
2.337713960E0,-9.816226959E-1,8.750806808E0,4.151545525E0
2.339413537E0,-9.576807022E-1,8.841787338E0,4.235342979E0
2.341787383E0,-1.010353088E0,8.841787338E0,4.331110954E0
2.343518652E0,-1.084573388E0,8.726864815E0,4.369418144E0
2.345889267E0,-1.058237195E0,8.676587105E0,4.426878929E0
2.347612575E0,-9.624691010E-1,8.726864815E0,4.520252705E0
2.350003114E0,-8.906430602E-1,8.724471092E0,4.570530891E0
2.351708306E0,-8.978256583E-1,8.633491516E0,4.592078686E0
2.354219767E0,-9.433154464E-1,8.599972725E0,4.659116745E0
2.356081844E0,-9.600749016E-1,8.667010307E0,4.730942726E0
2.358167729E0,-9.552865028E-1,8.695740700E0,4.721365929E0
2.359843306E0,-9.624691010E-1,8.643068314E0,4.663905144E0
2.362211844E0,-9.816226959E-1,8.628703117E0,4.683058739E0
2.363938614E0,-9.864110947E-1,8.686163902E0,4.735731125E0
2.366331114E0,-9.504981041E-1,8.700529099E0,4.697423935E0
2.368090229E0,-8.667010069E-1,8.647856712E0,4.584896088E0
2.370571960E0,-8.020575643E-1,8.638279915E0,4.532223701E0
2.372174344E0,-8.164227605E-1,8.719682693E0,4.544194698E0
2.374911229E0,-9.169792533E-1,8.724471092E0,4.374206543E0
2.376438883E0,-9.169792533E-1,8.705317497E0,4.223371983E0
2.379116575E0,-8.858546019E-1,8.774748802E0,4.211400986E0
2.380260652E0,-9.265560508E-1,8.834604263E0,4.273650169E0
2.383181537E0,-1.019929886E0,8.781931877E0,4.254496574E0
2.384389421E0,-1.027112484E0,8.724471092E0,4.192247391E0
2.387300653E0,-9.289502501E-1,8.757989883E0,4.209006786E0
2.388470267E0,-8.762778044E-1,8.801085472E0,4.273650169E0
2.391382267E0,-9.457096457E-1,8.748413086E0,4.316745758E0
2.392573037E0,-1.022324085E0,8.671798706E0,4.345476151E0
2.395506076E0,-1.012747288E0,8.690952301E0,4.410119534E0
2.396878537E0,-9.744400978E-1,8.741230011E0,4.477157116E0
2.399543038E0,-9.983820915E-1,8.705317497E0,4.515464306E0
2.400686190E0,-1.046266198E0,8.621520042E0,4.577713490E0
2.403610691E0,-1.041477680E0,8.595184326E0,4.675876141E0
2.404839729E0,-9.768342972E-1,8.609549522E0,4.745307922E0
2.407713038E0,-9.169792533E-1,8.588001251E0,4.738125324E0
2.408877460E0,-9.241618514E-1,8.561665535E0,4.711789131E0
2.411514883E0,-9.816226959E-1,8.583212852E0,4.730942726E0
2.412979037E0,-1.029506683E0,8.616731644E0,4.714183331E0
2.415919422E0,-1.027112484E0,8.626308441E0,4.627991676E0
2.417368652E0,-9.959878922E-1,8.633491516E0,4.544194698E0
2.419446998E0,-9.959878922E-1,8.657433510E0,4.513070107E0
2.421156421E0,-1.022324085E0,8.683769226E0,4.513070107E0
2.423536729E0,-1.019929886E0,8.678980827E0,4.443638325E0
2.425257998E0,-9.504981041E-1,8.676587105E0,4.343081951E0
2.427624537E0,-8.834604025E-1,8.702922821E0,4.302380562E0
2.429511806E0,-8.978256583E-1,8.736441612E0,4.297592163E0
2.431729537E0,-9.792284966E-1,8.746018410E0,4.280832767E0
2.433541960E0,-1.022324085E0,8.748413086E0,4.220977783E0
2.435963229E0,-9.935936928E-1,8.755595207E0,4.223371983E0
2.437733921E0,-9.935936928E-1,8.760383606E0,4.273650169E0
2.439875614E0,-1.034295082E0,8.734047890E0,4.357447147E0
2.441547998E0,-1.027112484E0,8.686163902E0,4.414907932E0
2.444007806E0,-9.457096457E-1,8.652645111E0,4.453215122E0
2.445626152E0,-8.810662031E-1,8.643068314E0,4.501099110E0
2.448028190E0,-9.026140571E-1,8.638279915E0,4.565742493E0
2.449785267E0,-9.792284966E-1,8.621520042E0,4.625597477E0
2.452236998E0,-1.019929886E0,8.599972725E0,4.637568474E0
2.453886383E0,-9.935936928E-1,8.597578049E0,4.647145271E0
2.456604075E0,-9.792284966E-1,8.614337921E0,4.668693542E0
2.458157306E0,-1.017535686E0,8.599972725E0,4.683058739E0
2.460829730E0,-1.060631394E0,8.571242332E0,4.697423935E0
2.461995767E0,-1.046266198E0,8.571242332E0,4.687847137E0
2.464892690E0,-9.864110947E-1,8.588001251E0,4.642356873E0
2.466132460E0,-9.648633003E-1,8.597578049E0,4.570530891E0
2.469001076E0,-1.015141487E0,8.604761124E0,4.505887508E0
2.470222421E0,-1.077390790E0,8.628703117E0,4.460397720E0
2.473103768E0,-1.108515382E0,8.645462036E0,4.374206543E0
2.474305921E0,-1.113303781E0,8.650250435E0,4.309563160E0
2.477206460E0,-1.204283476E0,8.640673637E0,4.333505154E0
2.478668921E0,-1.443703651E0,8.659827232E0,4.422090530E0
2.481254883E0,-1.723825216E0,8.705317497E0,4.503493309E0
2.482403075E0,-1.845929503E0,8.710105896E0,4.522646904E0
2.485331499E0,-1.649604917E0,8.652645111E0,4.539406300E0
2.486542075E0,-1.134851575E0,8.552088737E0,4.587290287E0
2.489434345E0,-4.548983276E-1,8.420407295E0,4.589684486E0
2.490630152E0,1.436520964E-1,8.291120529E0,4.469974518E0
2.493245344E0,4.429273009E-1,8.327033043E0,4.256890774E0
2.494747613E0,7.422025502E-2,8.588001251E0,4.283226967E0
2.497605113E0,-6.799532771E-1,8.870517731E0,4.388571739E0
2.499010037E0,-1.498770237E0,9.014169693E0,4.434061527E0
2.501166613E0,-2.063801765E0,9.081207275E0,4.405331135E0
2.502866152E0,-2.229001760E0,9.143456459E0,4.323928356E0
2.505335498E0,-2.104503393E0,9.143456459E0,4.163516521E0
2.506945921E0,-1.788468719E0,9.011775017E0,3.928884983E0
2.509856614E0,-1.290474772E0,8.844181061E0,3.699041605E0
2.511064152E0,-7.134721279E-1,8.774748802E0,3.620033026E0
2.513474229E0,-3.040636182E-1,8.724471092E0,3.641580820E0
2.515202613E0,-2.322375625E-1,8.633491516E0,3.711012602E0
2.517741498E0,-4.285621047E-1,8.583212852E0,3.907337189E0
2.519577575E0,-7.158663273E-1,8.638279915E0,4.228160381E0
2.521663344E0,-9.911994934E-1,8.705317497E0,4.556165695E0
2.523307075E0,-1.235408068E0,8.803479195E0,4.826710701E0
2.525671613E0,-1.369483352E0,8.997409821E0,4.934449673E0
2.527400037E0,-1.431732655E0,8.882488251E0,4.510675907E0
2.529790767E0,-1.623268723E0,8.748413086E0,3.969586372E0
2.531506037E0,-1.561019540E0,8.868123055E0,3.514688015E0
2.534013767E0,-1.010353088E0,9.157821655E0,3.473986626E0
2.535623844E0,-5.267243981E-1,9.224859238E0,3.940855980E0
2.538390883E0,-4.046200812E-1,8.757989883E0,4.340687752E0
2.540005190E0,-4.740519226E-1,8.336610794E0,4.572925091E0
2.542570922E0,-6.105214357E-1,8.415618896E0,4.829104900E0
2.543727575E0,-8.379706144E-1,8.643068314E0,4.967968464E0
2.546639075E0,-1.074996591E0,8.671798706E0,5.070919037E0
2.547842537E0,-1.067813993E0,8.492233276E0,5.351040840E0
2.550739383E0,-6.584054828E-1,8.240841866E0,6.014234543E0
2.551925190E0,-5.746083856E-1,8.276755333E0,6.150704384E0
2.554845575E0,-7.733271718E-1,8.389283180E0,5.683835030E0
2.556033767E0,-1.101332784E0,8.556877136E0,4.922478676E0
2.558948152E0,-1.347935557E0,8.717288017E0,4.355052948E0
2.560352883E0,-1.429338455E0,8.789113998E0,4.235342979E0
2.562985075E0,-1.431732655E0,8.753201485E0,4.453215122E0
2.564164460E0,-1.393425345E0,8.655038834E0,4.632780075E0
2.567053037E0,-1.292868972E0,8.599972725E0,4.529829502E0
2.568272921E0,-1.079784989E0,8.621520042E0,4.247313976E0
2.571155729E0,-7.565677166E-1,8.686163902E0,4.017470360E0
2.572407229E0,-4.788403511E-1,8.750806808E0,3.995922565E0
2.574994152E0,-4.213795066E-1,8.793902397E0,4.101267338E0
2.576460113E0,-6.200982332E-1,8.805873871E0,4.089296341E0
2.579362306E0,-9.528923035E-1,8.767566681E0,3.902548790E0
2.580723613E0,-1.137245774E0,8.810662270E0,3.775655985E0
2.582923806E0,-1.051054597E0,8.963891029E0,3.878606796E0
2.584603767E0,-8.236053586E-1,8.973467827E0,4.139574528E0
2.586982306E0,-5.961562395E-1,8.700529099E0,4.414907932E0
2.588729113E0,-3.782838583E-1,8.379706383E0,4.702212334E0
2.591040690E0,-2.609679997E-1,8.350975990E0,5.001487255E0
2.592768498E0,-3.758896589E-1,8.499416351E0,5.094861031E0
2.595177036E0,-6.679822803E-1,8.508993149E0,4.929661274E0
2.596880690E0,-9.193734527E-1,8.461109161E0,4.836287498E0
2.599423460E0,-1.019929886E0,8.549694061E0,5.037400246E0
2.601261960E0,-1.108515382E0,8.616731644E0,5.346252441E0
2.603397190E0,-1.249773264E0,8.473079681E0,5.489904404E0
2.605048344E0,-1.300051570E0,8.233659744E0,5.442020416E0
2.607409844E0,-1.151610970E0,8.171410561E0,5.449203014E0
2.609361075E0,-8.762778044E-1,8.339004517E0,5.578489780E0
2.611461498E0,-9.385270476E-1,8.379706383E0,5.461174011E0
2.613205575E0,-1.173158884E0,8.415618896E0,5.183446884E0
2.615655652E0,-1.431732655E0,8.499416351E0,4.874594688E0
2.617398729E0,-1.568202138E0,8.638279915E0,4.611232281E0
2.620037075E0,-1.517923832E0,8.786720276E0,4.333505154E0
2.621574267E0,-1.314416766E0,8.911218643E0,4.036623955E0
2.624253498E0,-1.048660398E0,8.990227699E0,3.758896589E0
2.625491844E0,-7.996633649E-1,9.002198219E0,3.529053211E0
2.628329921E0,-6.392518282E-1,8.963891029E0,3.349488258E0
2.629649998E0,-6.033388376E-1,8.985439301E0,3.227383852E0
2.632432652E0,-6.607996821E-1,9.109937668E0,3.157952070E0
2.633778460E0,-7.757213712E-1,9.244012833E0,3.069366693E0
2.636535344E0,-9.050082564E-1,9.277531624E0,3.026270866E0
2.637733113E0,-1.010353088E0,9.200917244E0,3.124433279E0
2.640637883E0,-1.063025594E0,9.093177795E0,3.430891037E0
2.642019190E0,-1.070208192E0,8.954314232E0,3.852270603E0
2.644666613E0,-1.039083481E0,8.784325600E0,4.192247391E0
2.645827306E0,-9.864110947E-1,8.655038834E0,4.467580318E0
2.648744960E0,-9.888052940E-1,8.628703117E0,4.639962673E0
2.650004883E0,-1.240196466E0,8.722076416E0,4.546588898E0
2.652848690E0,-1.572990537E0,8.801085472E0,4.386177540E0
2.654053960E0,-1.620874524E0,8.731653214E0,4.417302132E0
2.656692229E0,-1.405396342E0,8.583212852E0,4.582501888E0
2.658114498E0,-1.118092179E0,8.465897560E0,4.716577530E0
2.661051383E0,-9.002198577E-1,8.418013573E0,4.738125324E0
2.662504690E0,-7.900865674E-1,8.437167168E0,4.747702122E0
2.664570806E0,-7.637503147E-1,8.465897560E0,4.857835293E0
2.666336536E0,-8.188169599E-1,8.439560890E0,5.070919037E0
2.668665344E0,-1.024718285E0,8.413225174E0,5.329493046E0
2.670360575E0,-1.192312479E0,8.487444878E0,5.267243862E0
2.672760960E0,-1.285686255E0,8.609549522E0,5.023035049E0
2.674490960E0,-1.244984865E0,8.695740700E0,4.745307922E0
2.676851767E0,-1.077390790E0,8.705317497E0,4.608838081E0
2.678571421E0,-8.475474119E-1,8.643068314E0,4.613626480E0
2.681082113E0,-6.105214357E-1,8.568847656E0,4.625597477E0
2.682921229E0,-4.477157295E-1,8.568847656E0,4.508281708E0
2.685000767E0,-4.453215301E-1,8.667010307E0,4.283226967E0
2.686678883E0,-6.129156351E-1,8.786720276E0,4.031835556E0
2.689060036E0,-8.690952063E-1,8.875306129E0,3.900154591E0
2.690781344E0,-1.103726983E0,8.899248123E0,3.931279182E0
2.693160921E0,-1.235408068E0,8.882488251E0,4.027047157E0
2.694953844E0,-1.259350061E0,8.880094528E0,4.070142746E0
2.697408767E0,-1.213860273E0,8.870517731E0,4.015076160E0
2.699016421E0,-1.115697980E0,8.846575737E0,3.952826977E0
2.701745267E0,-9.433154464E-1,8.791508675E0,3.995922565E0
2.703334883E0,-7.637503147E-1,8.676587105E0,4.170699596E0
2.705941921E0,-6.871358752E-1,8.547300339E0,4.405331135E0
2.707128459E0,-7.685387731E-1,8.508993149E0,4.596867085E0
2.710014229E0,-9.528923035E-1,8.571242332E0,4.678270340E0
2.711204190E0,-1.127668977E0,8.645462036E0,4.678270340E0
2.714114498E0,-1.197100878E0,8.659827232E0,4.697423935E0
2.715333113E0,-1.146822572E0,8.614337921E0,4.836287498E0
2.718240959E0,-1.024718285E0,8.532935143E0,5.042188644E0
2.719429844E0,-9.026140571E-1,8.439560890E0,5.166687489E0
2.722344229E0,-7.924807668E-1,8.418013573E0,5.015852451E0
2.723809036E0,-7.996633649E-1,8.525752068E0,4.797980309E0
2.726391113E0,-8.858546019E-1,8.647856712E0,4.635174274E0
2.727536767E0,-1.005564690E0,8.700529099E0,4.548983097E0
2.730436459E0,-1.089361787E0,8.698134422E0,4.501099110E0
2.731647113E0,-1.106121182E0,8.724471092E0,4.441244125E0
2.734554690E0,-1.074996591E0,8.769960403E0,4.314351559E0
2.735751421E0,-1.015141487E0,8.796297073E0,4.144362926E0
2.738385306E0,-9.265560508E-1,8.805873871E0,4.024652958E0
2.739873613E0,-8.212111592E-1,8.805873871E0,4.007893562E0
2.742754421E0,-7.852981687E-1,8.798690796E0,4.048594952E0
2.744132190E0,-8.690952063E-1,8.762778282E0,4.072536945E0
2.746295806E0,-1.034295082E0,8.762778282E0,4.074931145E0
2.747974690E0,-1.173158884E0,8.825027466E0,4.074931145E0
2.750359652E0,-1.230619669E0,8.868123055E0,4.108449936E0
2.752081383E0,-1.194706678E0,8.810662270E0,4.189853191E0
2.754995305E0,-1.098938584E0,8.693346024E0,4.359841347E0
2.756206306E0,-9.959878922E-1,8.604761124E0,4.589684486E0
2.758600690E0,-9.313444495E-1,8.547300339E0,4.745307922E0
2.760306767E0,-9.145850539E-1,8.501810074E0,4.745307922E0
2.762953075E0,-9.409212470E-1,8.501810074E0,4.687847137E0
2.764683536E0,-1.031900883E0,8.568847656E0,4.721365929E0
2.766785459E0,-1.180341482E0,8.611943245E0,4.819528103E0
2.768455998E0,-1.312022567E0,8.568847656E0,4.860229492E0
2.770798729E0,-1.343147159E0,8.528146744E0,4.826710701E0
2.772662921E0,-1.300051570E0,8.566453934E0,4.764461517E0
2.774894306E0,-1.213860273E0,8.626308441E0,4.697423935E0
2.776629267E0,-1.110909581E0,8.623914719E0,4.592078686E0
2.779088421E0,-9.888052940E-1,8.583212852E0,4.486733913E0
2.780735959E0,-8.810662031E-1,8.659827232E0,4.352658749E0
2.783571767E0,-9.624691010E-1,8.729259491E0,4.209006786E0
2.785144152E0,-1.110909581E0,8.772355080E0,4.048594952E0
2.787710844E0,-1.197100878E0,8.841787338E0,3.945644379E0
2.788868806E0,-1.180341482E0,8.916007042E0,3.928884983E0
2.791778459E0,-1.118092179E0,8.899248123E0,3.948038578E0
2.792948306E0,-1.063025594E0,8.813055992E0,4.005499363E0
2.795881382E0,-1.010353088E0,8.750806808E0,4.127603531E0
2.797085306E0,-9.481038451E-1,8.734047890E0,4.232948780E0
2.799984613E0,-9.050082564E-1,8.714894295E0,4.261679173E0
2.801485729E0,-9.193734527E-1,8.693346024E0,4.264073372E0
2.804087728E0,-9.816226959E-1,8.698134422E0,4.367023945E0
2.805483844E0,-1.065419793E0,8.705317497E0,4.551377296E0
2.808126113E0,-1.127668977E0,8.645462036E0,4.678270340E0
2.809361536E0,-1.127668977E0,8.566453934E0,4.738125324E0
2.812194228E0,-1.072602391E0,8.549694061E0,4.812345505E0
2.813423152E0,-1.010353088E0,8.576030731E0,4.917690277E0
2.816298113E0,-9.744400978E-1,8.547300339E0,4.970362663E0
2.817524459E0,-9.504981041E-1,8.477868080E0,4.932055473E0
2.820139152E0,-9.385270476E-1,8.480262756E0,4.855441093E0
2.821672690E0,-9.792284966E-1,8.566453934E0,4.759673119E0
2.824469421E0,-1.067813993E0,8.645462036E0,4.651933670E0
2.825867229E0,-1.130063176E0,8.669404030E0,4.505887508E0
2.828018306E0,-1.082179189E0,8.712499619E0,4.383783340E0
2.829741536E0,-9.888052940E-1,8.786720276E0,4.302380562E0
2.832322190E0,-9.457096457E-1,8.801085472E0,4.228160381E0
2.833768190E0,-9.313444495E-1,8.760383606E0,4.151545525E0
2.836123690E0,-8.882488012E-1,8.753201485E0,4.089296341E0
2.837837806E0,-8.451532125E-1,8.805873871E0,4.031835556E0
2.840237652E0,-8.690952063E-1,8.863334656E0,3.943250179E0
2.841932536E0,-1.015141487E0,8.908824921E0,3.902548790E0
2.844439921E0,-1.072602391E0,8.913613319E0,3.995922565E0
2.846337921E0,-1.053448796E0,8.870517731E0,4.113238335E0
2.848522075E0,-9.864110947E-1,8.789113998E0,4.197035789E0
2.850081806E0,-9.050082564E-1,8.736441612E0,4.297592163E0
2.852443344E0,-8.523358107E-1,8.729259491E0,4.472368717E0
2.854165459E0,-8.571242094E-1,8.686163902E0,4.630385876E0
2.856579075E0,-9.145850539E-1,8.607154846E0,4.716577530E0
2.858203036E0,-9.935936928E-1,8.576030731E0,4.776432514E0
2.860679536E0,-1.082179189E0,8.619126320E0,4.857835293E0
2.862342152E0,-1.165976286E0,8.643068314E0,4.946420670E0
2.865103575E0,-1.189918280E0,8.595184326E0,4.967968464E0
2.866626652E0,-1.122880578E0,8.535328865E0,4.932055473E0
2.869264882E0,-1.036689281E0,8.523358345E0,4.905719280E0
2.870434306E0,-9.935936928E-1,8.542511940E0,4.881777287E0
2.873350267E0,-9.888052940E-1,8.542511940E0,4.853046894E0
2.874532921E0,-1.003170490E0,8.544905663E0,4.766855717E0
2.877444767E0,-1.039083481E0,8.595184326E0,4.613626480E0
2.878629113E0,-1.110909581E0,8.686163902E0,4.436455727E0
2.881544382E0,-1.194706678E0,8.746018410E0,4.280832767E0
2.882746382E0,-1.240196466E0,8.760383606E0,4.194641590E0
2.885658151E0,-1.192312479E0,8.746018410E0,4.141968727E0
2.887052498E0,-1.084573388E0,8.746018410E0,4.079719543E0
2.889694728E0,-9.840168953E-1,8.760383606E0,3.995922565E0
2.890836959E0,-9.241618514E-1,8.772355080E0,3.950432777E0
2.893725459E0,-9.050082564E-1,8.762778282E0,3.969586372E0
2.894921690E0,-9.169792533E-1,8.736441612E0,3.995922565E0
2.897852152E0,-9.672574997E-1,8.722076416E0,4.015076160E0
2.899045729E0,-1.039083481E0,8.748413086E0,4.070142746E0
2.901711767E0,-1.113303781E0,8.774748802E0,4.173093796E0
2.903177690E0,-1.142034173E0,8.743624687E0,4.271255970E0
2.906018421E0,-1.058237195E0,8.633491516E0,4.395754337E0
2.907501613E0,-9.935936928E-1,8.578424454E0,4.498704910E0
2.909578459E0,-9.552865028E-1,8.549694061E0,4.632780075E0
2.911274575E0,-9.552865028E-1,8.528146744E0,4.757278919E0
2.913660152E0,-1.024718285E0,8.501810074E0,4.829104900E0
2.915380882E0,-1.156399369E0,8.494627953E0,4.838681698E0
2.917761382E0,-1.290474772E0,8.535328865E0,4.812345505E0
2.919479767E0,-1.379060149E0,8.597578049E0,4.817133904E0
2.921863575E0,-1.371877551E0,8.604761124E0,4.829104900E0
2.923594921E0,-1.268926859E0,8.559270859E0,4.766855717E0
2.926083113E0,-1.125274777E0,8.537723541E0,4.625597477E0
2.927848767E0,-9.840168953E-1,8.576030731E0,4.465186119E0
2.930011036E0,-9.026140571E-1,8.652645111E0,4.347870350E0
2.931704190E0,-8.882488012E-1,8.698134422E0,4.268861771E0
2.934064305E0,-9.097966552E-1,8.707711220E0,4.187458992E0
2.935803613E0,-9.768342972E-1,8.755595207E0,4.120420933E0
2.938278536E0,-1.084573388E0,8.832210541E0,4.079719543E0
2.939976344E0,-1.173158884E0,8.877699852E0,4.079719543E0
2.942355421E0,-1.177947283E0,8.872911453E0,4.101267338E0
2.943990152E0,-1.118092179E0,8.832210541E0,4.127603531E0
2.946718036E0,-1.027112484E0,8.798690796E0,4.151545525E0
2.948285113E0,-9.433154464E-1,8.772355080E0,4.220977783E0
2.950978535E0,-8.810662031E-1,8.729259491E0,4.319139957E0
2.952176459E0,-8.619126081E-1,8.688557625E0,4.393360138E0
2.955046266E0,-8.978256583E-1,8.676587105E0,4.424484730E0
2.956251613E0,-9.696516991E-1,8.681375504E0,4.462791920E0
2.959130767E0,-1.027112484E0,8.659827232E0,4.553771496E0
2.960348536E0,-1.007958889E0,8.599972725E0,4.778826714E0
2.963238305E0,-9.600749016E-1,8.494627953E0,4.991910458E0
2.964438190E0,-9.840168953E-1,8.477868080E0,4.944026470E0
2.967352728E0,-1.029506683E0,8.513781548E0,4.896142483E0
2.968887536E0,-1.067813993E0,8.561665535E0,4.898536682E0
2.971409497E0,-1.082179189E0,8.568847656E0,4.884171486E0
2.972573498E0,-1.084573388E0,8.537723541E0,4.783615112E0
2.975476920E0,-1.098938584E0,8.566453934E0,4.606443882E0
2.976676344E0,-1.103726983E0,8.690952301E0,4.450820923E0
2.979556459E0,-1.039083481E0,8.935160637E0,4.259284973E0
2.980758921E0,-9.457096457E-1,9.097966194E0,3.780444384E0
2.983456036E0,-1.015141487E0,9.059659004E0,3.088520288E0
2.984890844E0,-1.185129881E0,9.066842079E0,2.583343744E0
2.987737575E0,-1.156399369E0,9.217676163E0,2.442085743E0
2.989159113E0,-9.265560508E-1,9.327810287E0,2.657563925E0
2.991358613E0,-6.943184733E-1,9.198522568E0,3.040636063E0
2.993002575E0,-5.841852427E-1,8.942343712E0,3.442862034E0
2.995389575E0,-6.153098345E-1,8.786720276E0,3.878606796E0
2.997093036E0,-7.422025204E-1,8.712499619E0,4.350264549E0
2.999998843E0,-8.379706144E-1,8.568847656E0,4.841075897E0
3.001353459E0,-8.212111592E-1,8.382100105E0,5.408501625E0
3.003698498E0,-7.254431248E-1,8.214506149E0,5.992686749E0
3.005389113E0,-6.871358752E-1,8.094796181E0,6.421248913E0
3.007882498E0,-7.876923680E-1,8.049305916E0,6.572083473E0
3.009642882E0,-9.648633003E-1,8.104372978E0,6.423643112E0
3.011857075E0,-1.139639974E0,8.236053467E0,6.100425720E0
3.013537190E0,-1.249773264E0,8.343792915E0,5.758055210E0
3.015991959E0,-1.256955862E0,8.360552788E0,5.521028996E0
3.017577998E0,-1.165976286E0,8.353369713E0,5.403713226E0
3.019908959E0,-1.017535686E0,8.403648376E0,5.085284233E0
3.021749728E0,-1.015141487E0,8.492233276E0,4.625597477E0
3.024074536E0,-1.048660398E0,8.669404030E0,4.122815132E0
3.025713613E0,-1.043871999E0,8.877699852E0,3.766079187E0
3.028477536E0,-1.024718285E0,8.966285706E0,3.615244627E0
3.030174075E0,-1.015141487E0,8.961497307E0,3.574543238E0
3.032710112E0,-1.051054597E0,8.971074104E0,3.521870613E0
3.033925613E0,-1.130063176E0,9.009381294E0,3.462015629E0
3.036778997E0,-1.156399369E0,9.014169693E0,3.483563423E0
3.037990036E0,-1.029506683E0,8.968679428E0,3.682282209E0
3.040880190E0,-8.116343617E-1,8.889671326E0,4.034229755E0
3.042063921E0,-6.536170840E-1,8.753201485E0,4.410119534E0
3.044973613E0,-6.153098345E-1,8.568847656E0,4.721365929E0
3.046146152E0,-6.536170840E-1,8.451532364E0,4.977545261E0
3.049087689E0,-7.350199223E-1,8.468291283E0,5.166687489E0
3.050575882E0,-8.714894056E-1,8.518569946E0,5.228936672E0
3.053121498E0,-1.046266198E0,8.532935143E0,5.190629482E0
3.054350382E0,-1.154005170E0,8.556877136E0,5.125985622E0
3.057193074E0,-1.142034173E0,8.633491516E0,5.001487255E0
3.058381344E0,-1.082179189E0,8.698134422E0,4.752490520E0
3.061279498E0,-1.017535686E0,8.693346024E0,4.359841347E0
3.062459421E0,-9.265560508E-1,8.719682693E0,3.998316765E0
3.065150498E0,-8.044517636E-1,8.820239067E0,3.792415380E0
3.066597652E0,-7.445967197E-1,8.901641846E0,3.665522814E0
3.069500766E0,-8.283938169E-1,8.908824921E0,3.502717018E0
3.070879921E0,-1.015141487E0,8.927978516E0,3.335123062E0
3.073068459E0,-1.189918280E0,9.018958092E0,3.270479441E0
3.074709190E0,-1.278503656E0,9.100360870E0,3.335123062E0
3.077101382E0,-1.247379065E0,9.062053680E0,3.481169224E0
3.078815921E0,-1.120486379E0,8.930372238E0,3.687070608E0
3.081218305E0,-9.050082564E-1,8.765172005E0,4.101267338E0
3.082844267E0,-8.451532125E-1,8.681375504E0,4.345476151E0
3.085217036E0,-8.307880163E-1,8.590395927E0,4.529829502E0
3.086955305E0,-8.355764151E-1,8.535328865E0,4.723760128E0
3.089460113E0,-8.714894056E-1,8.544905663E0,4.972756863E0
3.091345998E0,-9.576807022E-1,8.559270859E0,5.202600479E0
3.093441882E0,-1.053448796E0,8.506598473E0,5.351040840E0
3.095066382E0,-1.051054597E0,8.437167168E0,5.425261021E0
3.097445459E0,-9.504981041E-1,8.415618896E0,5.461174011E0
3.099195613E0,-8.307880163E-1,8.422801971E0,5.420472622E0
3.101613882E0,-7.374141216E-1,8.437167168E0,5.295974255E0
3.103339959E0,-6.895300746E-1,8.477868080E0,5.140350819E0
3.105742998E0,-7.038952708E-1,8.552088737E0,4.955997467E0
3.107390959E0,-7.972691655E-1,8.638279915E0,4.714183331E0
3.110162459E0,-9.289502501E-1,8.714894295E0,4.436455727E0
3.111658382E0,-1.015141487E0,8.803479195E0,4.213795185E0
3.114332152E0,-1.010353088E0,8.887276649E0,4.082113743E0
3.115493382E0,-9.385270476E-1,8.925583839E0,3.964797974E0
3.118415689E0,-8.762778044E-1,8.927978516E0,3.842693806E0
3.119636805E0,-8.331822157E-1,8.904036522E0,3.737348795E0
3.122496921E0,-8.068459630E-1,8.901641846E0,3.701435804E0
3.123692036E0,-7.661445141E-1,8.925583839E0,3.737348795E0
3.126602921E0,-7.302315235E-1,8.927978516E0,3.792415380E0
3.127791190E0,-7.469909191E-1,8.908824921E0,3.871424198E0
3.130721381E0,-8.116343617E-1,8.882488251E0,3.995922565E0
3.132076882E0,-8.667010069E-1,8.836998940E0,4.189853191E0
3.134759189E0,-8.499416113E-1,8.746018410E0,4.426878929E0
3.135951728E0,-7.613561153E-1,8.650250435E0,4.654327869E0
3.138827035E0,-6.655880809E-1,8.576030731E0,4.843470097E0
3.140011459E0,-6.153098345E-1,8.525752068E0,4.989516258E0
3.142925690E0,-6.177040339E-1,8.494627953E0,5.111620426E0
3.144108498E0,-6.631938815E-1,8.485051155E0,5.118803024E0
3.146765575E0,-7.374141216E-1,8.480262756E0,5.082890034E0
3.148223728E0,-8.236053586E-1,8.501810074E0,5.037400246E0
3.151107998E0,-8.906430602E-1,8.542511940E0,4.987122059E0
3.152663344E0,-9.074024558E-1,8.571242332E0,4.886565685E0
3.154717190E0,-9.002198577E-1,8.588001251E0,4.728548527E0
3.156397267E0,-8.930372596E-1,8.619126320E0,4.568136692E0
3.158792921E0,-9.050082564E-1,8.671798706E0,4.436455727E0
3.160488959E0,-9.241618514E-1,8.717288017E0,4.307168961E0
3.162828882E0,-9.457096457E-1,8.743624687E0,4.173093796E0
3.164586882E0,-9.696516991E-1,8.789113998E0,4.041412354E0
3.166949228E0,-1.010353088E0,8.860940933E0,3.938461781E0
3.168736728E0,-1.058237195E0,8.892065048E0,3.873818398E0
3.171178151E0,-1.065419793E0,8.870517731E0,3.907337189E0
3.172945305E0,-9.840168953E-1,8.822632790E0,4.003105164E0
3.175090036E0,-8.547300100E-1,8.796297073E0,4.115632534E0
3.176751151E0,-7.709329724E-1,8.777143478E0,4.216189384E0
3.179159575E0,-7.541735172E-1,8.748413086E0,4.295197964E0
3.180869613E0,-7.565677166E-1,8.729259491E0,4.405331135E0
3.183254498E0,-7.541735172E-1,8.722076416E0,4.548983097E0
3.185025728E0,-7.709329724E-1,8.683769226E0,4.659116745E0
3.187422190E0,-8.116343617E-1,8.638279915E0,4.747702122E0
3.189142305E0,-8.236053586E-1,8.621520042E0,4.862623692E0
3.191806998E0,-7.900865674E-1,8.609549522E0,4.951209068E0
3.193374998E0,-7.422025204E-1,8.568847656E0,4.965574265E0
3.196044073E0,-7.206547260E-1,8.523358345E0,4.951209068E0
3.197197690E0,-7.254431248E-1,8.520963669E0,4.963180065E0
3.200104113E0,-7.972691655E-1,8.564059258E0,4.946420670E0
3.201316728E0,-8.858546019E-1,8.576030731E0,4.819528103E0
3.204206805E0,-9.648633003E-1,8.619126320E0,4.654327869E0
3.205428151E0,-1.029506683E0,8.693346024E0,4.527435303E0
3.208317881E0,-1.063025594E0,8.729259491E0,4.458003521E0
3.209503844E0,-1.029506683E0,8.705317497E0,4.410119534E0
3.212420919E0,-9.433154464E-1,8.688557625E0,4.350264549E0
3.213943036E0,-8.523358107E-1,8.717288017E0,4.290409565E0
3.216477765E0,-8.164227605E-1,8.762778282E0,4.216189384E0
3.217618498E0,-8.331822157E-1,8.777143478E0,4.141968727E0
3.220537651E0,-8.547300100E-1,8.769960403E0,4.118026733E0
3.221733344E0,-8.595184088E-1,8.786720276E0,4.151545525E0
3.224627459E0,-8.762778044E-1,8.808267593E0,4.206612587E0
3.225822305E0,-9.097966552E-1,8.789113998E0,4.254496574E0
3.228491998E0,-9.050082564E-1,8.750806808E0,4.314351559E0
3.229949998E0,-8.475474119E-1,8.722076416E0,4.422090530E0
3.232856073E0,-7.733271718E-1,8.683769226E0,4.517858505E0
3.234420151E0,-7.254431248E-1,8.623914719E0,4.599261284E0
3.236359690E0,-7.182605267E-1,8.588001251E0,4.695029736E0
3.238040074E0,-7.517793179E-1,8.604761124E0,4.776432514E0
3.240415844E0,-8.092401624E-1,8.611943245E0,4.790797710E0
3.242210113E0,-8.738836050E-1,8.595184326E0,4.754884720E0
3.245074342E0,-9.193734527E-1,8.597578049E0,4.728548527E0
3.246297459E0,-9.361328483E-1,8.626308441E0,4.754884720E0
3.248694998E0,-9.289502501E-1,8.614337921E0,4.786009312E0
3.250487767E0,-8.954314590E-1,8.566453934E0,4.742913723E0
3.252949921E0,-8.523358107E-1,8.599972725E0,4.596867085E0
3.254652190E0,-8.595184088E-1,8.681375504E0,4.522646904E0
3.256814767E0,-9.026140571E-1,8.710105896E0,4.460397720E0
3.258480959E0,-9.313444495E-1,8.698134422E0,4.386177540E0
3.260861228E0,-9.313444495E-1,8.719682693E0,4.309563160E0
3.262649651E0,-9.385270476E-1,8.767566681E0,4.261679173E0
3.264973882E0,-9.504981041E-1,8.793902397E0,4.220977783E0
3.266741921E0,-9.241618514E-1,8.779537201E0,4.220977783E0
3.269145190E0,-8.667010069E-1,8.765172005E0,4.268861771E0
3.270806998E0,-8.044517636E-1,8.750806808E0,4.326322556E0
3.273516113E0,-7.829039693E-1,8.729259491E0,4.359841347E0
3.275159998E0,-7.948749661E-1,8.707711220E0,4.400542736E0
3.277764613E0,-8.212111592E-1,8.702922821E0,4.458003521E0
3.278926190E0,-8.427590132E-1,8.700529099E0,4.513070107E0
3.281851150E0,-8.475474119E-1,8.686163902E0,4.537012100E0
3.283045459E0,-8.547300100E-1,8.674192429E0,4.575319290E0
3.285938459E0,-8.595184088E-1,8.655038834E0,4.663905144E0
3.287170921E0,-8.403648138E-1,8.631096840E0,4.752490520E0
3.290055573E0,-8.044517636E-1,8.583212852E0,4.764461517E0
3.291239459E0,-7.852981687E-1,8.561665535E0,4.735731125E0
3.294158419E0,-8.020575643E-1,8.592789650E0,4.718971729E0
3.295495267E0,-8.379706144E-1,8.633491516E0,4.704606533E0
3.298196111E0,-8.954314590E-1,8.643068314E0,4.661510944E0
3.299345805E0,-9.528923035E-1,8.623914719E0,4.572925091E0
3.302263765E0,-9.696516991E-1,8.647856712E0,4.515464306E0
3.303441421E0,-9.624691010E-1,8.700529099E0,4.484339714E0
3.306366419E0,-9.552865028E-1,8.693346024E0,4.450820923E0
3.307527151E0,-9.337386489E-1,8.650250435E0,4.417302132E0
3.310184690E0,-8.954314590E-1,8.643068314E0,4.398148537E0
3.311659882E0,-8.906430602E-1,8.681375504E0,4.398148537E0
3.314551767E0,-9.648633003E-1,8.714894295E0,4.388571739E0
3.315936267E0,-1.005564690E0,8.702922821E0,4.390965939E0
3.318057074E0,-1.012747288E0,8.710105896E0,4.412513733E0
3.319765959E0,-9.888052940E-1,8.714894295E0,4.424484730E0
3.322133036E0,-9.528923035E-1,8.702922821E0,4.458003521E0
3.323892767E0,-9.002198577E-1,8.678980827E0,4.534617901E0
3.326230113E0,-8.379706144E-1,8.640673637E0,4.604049683E0
3.327961651E0,-7.996633649E-1,8.614337921E0,4.627991676E0
3.330374344E0,-7.996633649E-1,8.597578049E0,4.625597477E0
3.332081305E0,-8.212111592E-1,8.619126320E0,4.656722069E0
3.334667767E0,-8.547300100E-1,8.652645111E0,4.695029736E0
3.336427613E0,-9.145850539E-1,8.657433510E0,4.690241337E0
3.338519305E0,-9.744400978E-1,8.645462036E0,4.635174274E0
3.340206497E0,-9.888052940E-1,8.655038834E0,4.580107689E0
3.342577267E0,-9.409212470E-1,8.676587105E0,4.560954094E0
3.344279805E0,-8.834604025E-1,8.667010307E0,4.565742493E0
3.346727036E0,-8.331822157E-1,8.643068314E0,4.537012100E0
3.348403997E0,-8.164227605E-1,8.647856712E0,4.474762917E0
3.351061805E0,-8.547300100E-1,8.669404030E0,4.414907932E0
3.352501228E0,-9.193734527E-1,8.693346024E0,4.367023945E0
3.355351651E0,-9.744400978E-1,8.714894295E0,4.352658749E0
3.356798767E0,-1.005564690E0,8.724471092E0,4.347870350E0
3.359466765E0,-1.017535686E0,8.734047890E0,4.333505154E0
3.360622844E0,-1.010353088E0,8.736441612E0,4.323928356E0
3.363533495E0,-9.816226959E-1,8.719682693E0,4.357447147E0
3.364716574E0,-9.385270476E-1,8.686163902E0,4.400542736E0
3.367635457E0,-9.002198577E-1,8.664615631E0,4.424484730E0
3.368882421E0,-8.810662031E-1,8.662221909E0,4.441244125E0
3.371737649E0,-9.121908545E-1,8.674192429E0,4.486733913E0
3.372929536E0,-9.481038451E-1,8.662221909E0,4.532223701E0
3.375839957E0,-9.816226959E-1,8.638279915E0,4.560954094E0
3.377242651E0,-1.000776291E0,8.638279915E0,4.587290287E0
3.379877305E0,-9.959878922E-1,8.650250435E0,4.611232281E0
3.381043459E0,-9.624691010E-1,8.640673637E0,4.644751072E0
3.383945457E0,-9.241618514E-1,8.607154846E0,4.666299343E0
3.385185767E0,-9.026140571E-1,8.576030731E0,4.668693542E0
3.388048726E0,-8.978256583E-1,8.583212852E0,4.656722069E0
3.389259036E0,-9.002198577E-1,8.611943245E0,4.637568474E0
3.391923344E0,-9.193734527E-1,8.638279915E0,4.618414879E0
3.393401574E0,-9.672574997E-1,8.638279915E0,4.599261284E0
3.396212382E0,-1.012747288E0,8.631096840E0,4.551377296E0
3.397744382E0,-1.019929886E0,8.645462036E0,4.508281708E0
3.399814267E0,-9.911994934E-1,8.659827232E0,4.496310711E0
3.401485536E0,-9.672574997E-1,8.667010307E0,4.493916512E0
3.403853728E0,-9.528923035E-1,8.652645111E0,4.491522312E0
3.405622959E0,-9.457096457E-1,8.631096840E0,4.450820923E0
3.407980882E0,-9.552865028E-1,8.628703117E0,4.414907932E0
3.409842997E0,-9.744400978E-1,8.657433510E0,4.414907932E0
3.412066767E0,-1.003170490E0,8.681375504E0,4.448426723E0
3.413781036E0,-1.029506683E0,8.676587105E0,4.458003521E0
3.416300305E0,-1.046266198E0,8.652645111E0,4.443638325E0
3.418043459E0,-1.027112484E0,8.645462036E0,4.462791920E0
3.420293882E0,-9.648633003E-1,8.655038834E0,4.525041103E0
3.421908344E0,-8.930372596E-1,8.628703117E0,4.577713490E0
3.424270613E0,-8.571242094E-1,8.585607529E0,4.594472885E0
3.425979767E0,-8.523358107E-1,8.580819130E0,4.594472885E0
3.428401382E0,-8.762778044E-1,8.619126320E0,4.608838081E0
3.430077882E0,-9.121908545E-1,8.623914719E0,4.625597477E0
3.432571459E0,-9.600749016E-1,8.599972725E0,4.632780075E0
3.434228959E0,-9.816226959E-1,8.614337921E0,4.647145271E0
3.436921344E0,-9.864110947E-1,8.616731644E0,4.644751072E0
3.438477574E0,-9.720458984E-1,8.592789650E0,4.630385876E0
3.441160036E0,-9.289502501E-1,8.571242332E0,4.625597477E0
3.442307344E0,-8.858546019E-1,8.588001251E0,4.625597477E0
3.445221651E0,-8.834604025E-1,8.611943245E0,4.599261284E0
3.446426228E0,-9.169792533E-1,8.619126320E0,4.544194698E0
3.449336764E0,-9.361328483E-1,8.631096840E0,4.517858505E0
3.450534382E0,-9.433154464E-1,8.647856712E0,4.539406300E0
3.453437344E0,-9.552865028E-1,8.652645111E0,4.534617901E0
3.454626536E0,-9.672574997E-1,8.640673637E0,4.510675907E0
3.457543110E0,-9.481038451E-1,8.645462036E0,4.510675907E0
3.459005459E0,-9.074024558E-1,8.667010307E0,4.537012100E0
3.461601226E0,-8.810662031E-1,8.657433510E0,4.537012100E0
3.462745113E0,-8.690952063E-1,8.619126320E0,4.493916512E0
3.465669341E0,-8.571242094E-1,8.621520042E0,4.484339714E0
3.466924305E0,-8.523358107E-1,8.662221909E0,4.503493309E0
3.469772495E0,-8.619126081E-1,8.676587105E0,4.503493309E0
3.471030690E0,-8.954314590E-1,8.645462036E0,4.484339714E0
3.473601267E0,-9.169792533E-1,8.631096840E0,4.477157116E0
3.475108805E0,-9.074024558E-1,8.659827232E0,4.493916512E0
3.477935920E0,-8.834604025E-1,8.676587105E0,4.525041103E0
3.479355074E0,-8.595184088E-1,8.652645111E0,4.520252705E0
3.481513613E0,-8.475474119E-1,8.633491516E0,4.505887508E0
3.483247536E0,-8.643068075E-1,8.647856712E0,4.496310711E0
3.485734959E0,-9.026140571E-1,8.664615631E0,4.462791920E0
3.487296459E0,-9.241618514E-1,8.664615631E0,4.441244125E0
3.490195649E0,-9.097966552E-1,8.659827232E0,4.486733913E0
3.491413690E0,-9.241618514E-1,8.659827232E0,4.505887508E0
3.493831459E0,-9.337386489E-1,8.640673637E0,4.489128113E0
3.495548420E0,-9.193734527E-1,8.628703117E0,4.491522312E0
3.498032228E0,-8.882488012E-1,8.631096840E0,4.541800499E0
3.499808074E0,-8.858546019E-1,8.647856712E0,4.594472885E0
3.501969959E0,-9.121908545E-1,8.640673637E0,4.604049683E0
3.503641574E0,-9.433154464E-1,8.626308441E0,4.582501888E0
3.506018920E0,-9.504981041E-1,8.643068314E0,4.601655483E0
3.507747805E0,-9.241618514E-1,8.655038834E0,4.625597477E0
3.510111228E0,-8.906430602E-1,8.640673637E0,4.625597477E0
3.511831382E0,-8.738836050E-1,8.614337921E0,4.616020679E0
3.514328113E0,-8.427590132E-1,8.609549522E0,4.618414879E0
3.515946459E0,-7.972691655E-1,8.631096840E0,4.639962673E0
3.518684959E0,-7.661445141E-1,8.626308441E0,4.637568474E0
3.520309113E0,-7.757213712E-1,8.607154846E0,4.596867085E0
3.522909726E0,-8.236053586E-1,8.631096840E0,4.565742493E0
3.524096228E0,-8.595184088E-1,8.674192429E0,4.556165695E0
3.526977613E0,-8.738836050E-1,8.683769226E0,4.534617901E0
3.528207305E0,-8.714894056E-1,8.662221909E0,4.501099110E0
3.531065728E0,-8.643068075E-1,8.645462036E0,4.489128113E0
3.532296613E0,-8.475474119E-1,8.667010307E0,4.493916512E0
3.535183149E0,-8.212111592E-1,8.671798706E0,4.493916512E0
3.536464151E0,-7.900865674E-1,8.662221909E0,4.486733913E0
3.539286264E0,-7.757213712E-1,8.657433510E0,4.486733913E0
3.540697036E0,-7.900865674E-1,8.669404030E0,4.496310711E0
3.543326072E0,-8.236053586E-1,8.669404030E0,4.493916512E0
3.544512382E0,-8.547300100E-1,8.669404030E0,4.501099110E0
3.547393764E0,-8.475474119E-1,8.678980827E0,4.541800499E0
3.548587882E0,-8.379706144E-1,8.669404030E0,4.560954094E0
3.551497225E0,-8.355764151E-1,8.655038834E0,4.556165695E0
3.552754843E0,-8.092401624E-1,8.657433510E0,4.575319290E0
3.555360420E0,-7.541735172E-1,8.659827232E0,4.625597477E0
3.556803459E0,-7.230489254E-1,8.647856712E0,4.644751072E0
3.559675190E0,-7.493851185E-1,8.635885239E0,4.623203278E0
3.561115536E0,-7.948749661E-1,8.643068314E0,4.599261284E0
3.563230997E0,-8.212111592E-1,8.667010307E0,4.596867085E0
3.564932690E0,-8.236053586E-1,8.671798706E0,4.599261284E0
3.567556920E0,-8.164227605E-1,8.662221909E0,4.580107689E0
3.569055574E0,-8.164227605E-1,8.664615631E0,4.560954094E0
3.571446074E0,-8.092401624E-1,8.683769226E0,4.546588898E0
3.573392190E0,-7.805097699E-1,8.693346024E0,4.537012100E0
3.575525536E0,-7.613561153E-1,8.688557625E0,4.520252705E0
3.577257382E0,-7.493851185E-1,8.674192429E0,4.493916512E0
3.579758613E0,-7.541735172E-1,8.693346024E0,4.484339714E0
3.581582574E0,-7.781155705E-1,8.726864815E0,4.472368717E0
3.583702997E0,-7.924807668E-1,8.738836288E0,4.458003521E0
3.585446805E0,-7.948749661E-1,8.717288017E0,4.469974518E0
3.587725574E0,-7.805097699E-1,8.700529099E0,4.493916512E0
3.589481228E0,-7.709329724E-1,8.705317497E0,4.525041103E0
3.591838382E0,-7.733271718E-1,8.712499619E0,4.544194698E0
3.593557843E0,-7.541735172E-1,8.695740700E0,4.560954094E0
3.596029843E0,-7.302315235E-1,8.667010307E0,4.572925091E0
3.597690151E0,-7.230489254E-1,8.657433510E0,4.580107689E0
3.600448690E0,-7.493851185E-1,8.674192429E0,4.594472885E0
3.602035305E0,-7.996633649E-1,8.688557625E0,4.630385876E0
3.604600148E0,-8.044517636E-1,8.669404030E0,4.649539471E0
3.605762343E0,-8.020575643E-1,8.657433510E0,4.656722069E0
3.608667187E0,-7.996633649E-1,8.652645111E0,4.668693542E0
3.610049651E0,-7.829039693E-1,8.655038834E0,4.678270340E0
3.612769648E0,-7.589619160E-1,8.643068314E0,4.680664539E0
3.614007228E0,-7.422025204E-1,8.616731644E0,4.663905144E0
3.616872841E0,-7.374141216E-1,8.609549522E0,4.644751072E0
3.618122882E0,-7.589619160E-1,8.638279915E0,4.632780075E0
3.620976187E0,-7.924807668E-1,8.662221909E0,4.623203278E0
3.622435151E0,-8.092401624E-1,8.664615631E0,4.604049683E0
3.625013918E0,-8.044517636E-1,8.659827232E0,4.592078686E0
3.626173305E0,-7.996633649E-1,8.652645111E0,4.568136692E0
3.629081533E0,-7.924807668E-1,8.650250435E0,4.544194698E0
3.630304497E0,-7.637503147E-1,8.657433510E0,4.541800499E0
3.633184110E0,-7.374141216E-1,8.662221909E0,4.558559895E0
3.634450113E0,-7.182605267E-1,8.647856712E0,4.548983097E0
3.637026959E0,-7.374141216E-1,8.640673637E0,4.517858505E0
3.638519382E0,-7.637503147E-1,8.657433510E0,4.520252705E0
3.641379805E0,-7.709329724E-1,8.674192429E0,4.541800499E0
3.642971920E0,-7.637503147E-1,8.667010307E0,4.580107689E0
3.644936997E0,-7.422025204E-1,8.647856712E0,4.604049683E0
3.646617997E0,-7.230489254E-1,8.652645111E0,4.635174274E0
3.649008574E0,-7.206547260E-1,8.655038834E0,4.683058739E0
3.650801959E0,-7.015010715E-1,8.633491516E0,4.718971729E0
3.653165536E0,-6.607996821E-1,8.616731644E0,4.747702122E0
3.654826074E0,-6.392518282E-1,8.609549522E0,4.766855717E0
3.657209651E0,-6.488286853E-1,8.616731644E0,4.774038315E0
3.658935843E0,-6.631938815E-1,8.623914719E0,4.771644115E0
3.661444613E0,-6.560112834E-1,8.611943245E0,4.795586109E0
3.663214151E0,-6.488286853E-1,8.607154846E0,4.800374508E0
3.665349420E0,-6.584054828E-1,8.607154846E0,4.774038315E0
3.667037497E0,-6.775590777E-1,8.599972725E0,4.730942726E0
3.669431343E0,-6.919242740E-1,8.607154846E0,4.695029736E0
3.671137497E0,-6.871358752E-1,8.611943245E0,4.656722069E0
3.673504420E0,-7.015010715E-1,8.614337921E0,4.599261284E0
3.675225420E0,-7.493851185E-1,8.621520042E0,4.537012100E0
3.677714843E0,-7.876923680E-1,8.655038834E0,4.493916512E0
3.679412651E0,-8.020575643E-1,8.702922821E0,4.496310711E0
3.682133497E0,-8.044517636E-1,8.705317497E0,4.479551315E0
3.683698805E0,-7.924807668E-1,8.676587105E0,4.441244125E0
3.686289956E0,-7.613561153E-1,8.669404030E0,4.426878929E0
3.687491459E0,-7.086837292E-1,8.690952301E0,4.465186119E0
3.690357494E0,-6.536170840E-1,8.683769226E0,4.501099110E0
3.691574690E0,-6.153098345E-1,8.650250435E0,4.503493309E0
3.694459379E0,-6.081272364E-1,8.652645111E0,4.505887508E0
3.695687266E0,-6.248866320E-1,8.681375504E0,4.532223701E0
3.698561686E0,-6.607996821E-1,8.681375504E0,4.584896088E0
3.699784843E0,-6.943184733E-1,8.640673637E0,4.635174274E0
3.702663571E0,-7.134721279E-1,8.609549522E0,4.692635536E0
3.704171920E0,-7.445967197E-1,8.614337921E0,4.750096321E0
3.706721302E0,-7.876923680E-1,8.621520042E0,4.797980309E0
3.707877151E0,-8.188169599E-1,8.590395927E0,4.831499100E0
3.710775651E0,-8.140285611E-1,8.564059258E0,4.881777287E0
3.711987536E0,-7.900865674E-1,8.564059258E0,4.927267075E0
3.714890302E0,-7.805097699E-1,8.559270859E0,4.932055473E0
3.716136690E0,-7.829039693E-1,8.542511940E0,4.915296078E0
3.718747766E0,-7.565677166E-1,8.537723541E0,4.900930882E0
3.720213420E0,-7.350199223E-1,8.561665535E0,4.900930882E0
3.723068113E0,-7.445967197E-1,8.544905663E0,4.848258495E0
3.724486459E0,-7.469909191E-1,8.547300339E0,4.812345505E0
3.726633959E0,-7.398083210E-1,8.590395927E0,4.809951305E0
3.728312690E0,-7.517793179E-1,8.626308441E0,4.774038315E0
3.730681766E0,-7.661445141E-1,8.619126320E0,4.687847137E0
3.732407920E0,-7.541735172E-1,8.621520042E0,4.604049683E0
3.735310071E0,-7.206547260E-1,8.647856712E0,4.548983097E0
3.736648382E0,-6.799532771E-1,8.676587105E0,4.525041103E0
3.738951690E0,-6.368576288E-1,8.674192429E0,4.491522312E0
3.740699382E0,-6.081272364E-1,8.655038834E0,4.436455727E0
3.743139190E0,-5.985504389E-1,8.657433510E0,4.407725334E0
3.744910497E0,-6.153098345E-1,8.676587105E0,4.422090530E0
3.747121613E0,-6.607996821E-1,8.678980827E0,4.460397720E0
3.748753036E0,-6.967126727E-1,8.662221909E0,4.498704910E0
3.751146766E0,-7.350199223E-1,8.647856712E0,4.541800499E0
3.752868574E0,-7.829039693E-1,8.650250435E0,4.570530891E0
3.755232728E0,-8.164227605E-1,8.650250435E0,4.606443882E0
3.756973843E0,-8.188169599E-1,8.631096840E0,4.659116745E0
3.759442843E0,-7.996633649E-1,8.604761124E0,4.730942726E0
3.761077228E0,-7.757213712E-1,8.583212852E0,4.769249916E0
3.763831728E0,-7.613561153E-1,8.573636055E0,4.769249916E0
3.765437305E0,-7.733271718E-1,8.578424454E0,4.776432514E0
3.768022225E0,-8.044517636E-1,8.592789650E0,4.795586109E0
3.769210997E0,-8.283938169E-1,8.599972725E0,4.790797710E0
3.772089955E0,-8.547300100E-1,8.604761124E0,4.762067318E0
3.773399920E0,-8.810662031E-1,8.626308441E0,4.728548527E0
3.776192763E0,-8.810662031E-1,8.659827232E0,4.702212334E0
3.777400228E0,-8.595184088E-1,8.676587105E0,4.649539471E0
3.780295532E0,-8.523358107E-1,8.657433510E0,4.575319290E0
3.781582959E0,-8.355764151E-1,8.667010307E0,4.525041103E0
3.784398148E0,-8.092401624E-1,8.695740700E0,4.508281708E0
3.785823882E0,-7.996633649E-1,8.707711220E0,4.503493309E0
3.788435955E0,-8.092401624E-1,8.698134422E0,4.481945515E0
3.789618997E0,-8.283938169E-1,8.690952301E0,4.458003521E0
3.792503955E0,-8.427590132E-1,8.702922821E0,4.455609322E0
3.793778113E0,-8.283938169E-1,8.714894295E0,4.462791920E0
3.796606340E0,-7.852981687E-1,8.712499619E0,4.484339714E0
3.797868766E0,-7.422025204E-1,8.678980827E0,4.501099110E0
3.800495728E0,-7.230489254E-1,8.659827232E0,4.510675907E0
3.801952843E0,-7.158663273E-1,8.650250435E0,4.532223701E0
3.804811071E0,-7.302315235E-1,8.645462036E0,4.577713490E0
3.806245266E0,-7.757213712E-1,8.638279915E0,4.630385876E0
3.808371266E0,-8.259995580E-1,8.626308441E0,4.666299343E0
3.810100882E0,-8.762778044E-1,8.621520042E0,4.695029736E0
3.812728766E0,-9.193734527E-1,8.616731644E0,4.714183331E0
3.814124651E0,-9.409212470E-1,8.609549522E0,4.750096321E0
3.816690882E0,-9.241618514E-1,8.592789650E0,4.783615112E0
3.818305305E0,-8.978256583E-1,8.566453934E0,4.788403511E0
3.820717074E0,-8.786720037E-1,8.547300339E0,4.754884720E0
3.822372805E0,-8.643068075E-1,8.554482460E0,4.733336926E0
3.824833613E0,-8.643068075E-1,8.571242332E0,4.721365929E0
3.826710843E0,-8.882488012E-1,8.578424454E0,4.695029736E0
3.828795266E0,-9.217676520E-1,8.588001251E0,4.647145271E0
3.830463074E0,-9.289502501E-1,8.607154846E0,4.594472885E0
3.832841459E0,-9.169792533E-1,8.643068314E0,4.570530891E0
3.834572959E0,-8.906430602E-1,8.657433510E0,4.537012100E0
3.836967074E0,-8.403648138E-1,8.650250435E0,4.448426723E0
3.838758305E0,-7.924807668E-1,8.647856712E0,4.378994942E0
3.841396959E0,-7.493851185E-1,8.667010307E0,4.333505154E0
3.842728266E0,-7.398083210E-1,8.695740700E0,4.314351559E0
3.845458189E0,-7.685387731E-1,8.705317497E0,4.311957359E0
3.847049113E0,-8.020575643E-1,8.698134422E0,4.311957359E0
3.849657494E0,-8.355764151E-1,8.702922821E0,4.316745758E0
3.850832459E0,-8.619126081E-1,8.714894295E0,4.338293552E0
3.853724494E0,-8.643068075E-1,8.705317497E0,4.378994942E0
3.854949305E0,-8.523358107E-1,8.674192429E0,4.429273129E0
3.857827686E0,-8.427590132E-1,8.640673637E0,4.479551315E0
3.859065074E0,-8.331822157E-1,8.623914719E0,4.534617901E0
3.861930686E0,-8.403648138E-1,8.633491516E0,4.601655483E0
3.863141766E0,-8.667010069E-1,8.631096840E0,4.673481941E0
3.866033109E0,-8.930372596E-1,8.599972725E0,4.728548527E0
3.867517459E0,-8.978256583E-1,8.571242332E0,4.774038315E0
3.870070224E0,-8.882488012E-1,8.561665535E0,4.817133904E0
3.871243459E0,-8.714894056E-1,8.561665535E0,4.850652695E0
3.874136763E0,-8.427590132E-1,8.561665535E0,4.857835293E0
3.875351805E0,-8.283938169E-1,8.568847656E0,4.850652695E0
3.878239032E0,-8.236053586E-1,8.585607529E0,4.824316502E0
3.879509420E0,-8.188169599E-1,8.592789650E0,4.776432514E0
3.882138766E0,-8.068459630E-1,8.604761124E0,4.742913723E0
3.883553228E0,-8.020575643E-1,8.631096840E0,4.695029736E0
3.886444224E0,-8.116343617E-1,8.657433510E0,4.620809078E0
3.887931843E0,-8.259995580E-1,8.683769226E0,4.529829502E0
3.890012805E0,-8.283938169E-1,8.717288017E0,4.450820923E0
3.891828420E0,-8.092401624E-1,8.743624687E0,4.400542736E0
3.894081305E0,-7.924807668E-1,8.760383606E0,4.364629745E0
3.895788343E0,-7.900865674E-1,8.753201485E0,4.311957359E0
3.898174036E0,-7.852981687E-1,8.750806808E0,4.256890774E0
3.899956920E0,-7.948749661E-1,8.769960403E0,4.264073372E0
3.902279805E0,-8.259995580E-1,8.772355080E0,4.285621166E0
3.903994305E0,-8.643068075E-1,8.750806808E0,4.321534157E0
3.906499536E0,-8.906430602E-1,8.743624687E0,4.374206543E0
3.908270920E0,-8.858546019E-1,8.746018410E0,4.453215122E0
3.910418266E0,-8.667010069E-1,8.724471092E0,4.532223701E0
3.912128228E0,-8.379706144E-1,8.676587105E0,4.580107689E0
3.914456728E0,-8.044517636E-1,8.652645111E0,4.618414879E0
3.916190420E0,-7.852981687E-1,8.647856712E0,4.666299343E0
3.918604882E0,-7.613561153E-1,8.631096840E0,4.697423935E0
3.920301189E0,-7.493851185E-1,8.623914719E0,4.707000732E0
3.922757305E0,-7.733271718E-1,8.626308441E0,4.697423935E0
3.924479920E0,-8.188169599E-1,8.635885239E0,4.680664539E0
3.927160305E0,-8.475474119E-1,8.645462036E0,4.659116745E0
3.928676728E0,-8.619126081E-1,8.638279915E0,4.620809078E0
3.931350878E0,-8.714894056E-1,8.655038834E0,4.577713490E0
3.932498651E0,-8.858546019E-1,8.695740700E0,4.517858505E0
3.935419801E0,-9.097966552E-1,8.710105896E0,4.431667328E0
3.936642920E0,-9.265560508E-1,8.707711220E0,4.352658749E0
3.939507612E0,-9.169792533E-1,8.710105896E0,4.297592163E0
3.940697382E0,-9.002198577E-1,8.726864815E0,4.283226967E0
3.943609843E0,-9.169792533E-1,8.731653214E0,4.273650169E0
3.944799266E0,-9.457096457E-1,8.705317497E0,4.244919777E0
3.947729147E0,-9.672574997E-1,8.710105896E0,4.242525578E0
3.949172997E0,-9.720458984E-1,8.736441612E0,4.273650169E0
3.951786839E0,-9.744400978E-1,8.724471092E0,4.297592163E0
3.952944343E0,-9.840168953E-1,8.695740700E0,4.323928356E0
3.955854724E0,-9.888052940E-1,8.681375504E0,4.364629745E0
3.957026843E0,-9.504981041E-1,8.671798706E0,4.412513733E0
3.959957762E0,-9.385270476E-1,8.640673637E0,4.438849926E0
3.961137766E0,-9.361328483E-1,8.616731644E0,4.469974518E0
3.963799228E0,-9.289502501E-1,8.638279915E0,4.525041103E0
3.965388189E0,-9.385270476E-1,8.657433510E0,4.560954094E0
3.968164339E0,-9.672574997E-1,8.643068314E0,4.551377296E0
3.969606843E0,-9.864110947E-1,8.638279915E0,4.539406300E0
3.971682266E0,-9.911994934E-1,8.662221909E0,4.544194698E0
3.973368036E0,-9.983820915E-1,8.676587105E0,4.539406300E0
3.975748228E0,-1.005564690E0,8.669404030E0,4.513070107E0
3.977461459E0,-1.003170490E0,8.669404030E0,4.481945515E0
3.980381532E0,-9.983820915E-1,8.690952301E0,4.465186119E0
3.981637112E0,-1.029506683E0,8.717288017E0,4.448426723E0
3.984041882E0,-1.055842996E0,8.717288017E0,4.414907932E0
3.985810228E0,-1.036689281E0,8.714894295E0,4.393360138E0
3.988208112E0,-9.983820915E-1,8.726864815E0,4.395754337E0
3.989963805E0,-9.816226959E-1,8.738836288E0,4.407725334E0
3.992123574E0,-9.744400978E-1,8.731653214E0,4.393360138E0
3.993802343E0,-9.600749016E-1,8.724471092E0,4.371812344E0
3.996203959E0,-9.385270476E-1,8.731653214E0,4.367023945E0
3.997957959E0,-9.289502501E-1,8.731653214E0,4.364629745E0
4.000294420E0,-9.217676520E-1,8.726864815E0,4.362235546E0
4.002018420E0,-9.217676520E-1,8.710105896E0,4.340687752E0
4.004483228E0,-9.169792533E-1,8.712499619E0,4.335899353E0
4.006115612E0,-9.074024558E-1,8.717288017E0,4.340687752E0
4.008917074E0,-9.169792533E-1,8.717288017E0,4.340687752E0
4.010493343E0,-9.385270476E-1,8.724471092E0,4.357447147E0
4.013087266E0,-9.600749016E-1,8.722076416E0,4.412513733E0
4.014250689E0,-9.481038451E-1,8.702922821E0,4.446032524E0
4.017166993E0,-9.337386489E-1,8.674192429E0,4.460397720E0
4.018517574E0,-9.385270476E-1,8.652645111E0,4.465186119E0
4.021270301E0,-9.504981041E-1,8.652645111E0,4.486733913E0
4.022511305E0,-9.457096457E-1,8.657433510E0,4.501099110E0
4.025373070E0,-9.552865028E-1,8.664615631E0,4.515464306E0
4.026553651E0,-9.816226959E-1,8.662221909E0,4.525041103E0
4.029475378E0,-1.010353088E0,8.664615631E0,4.532223701E0
4.030852074E0,-1.034295082E0,8.664615631E0,4.546588898E0
4.033504074E0,-1.039083481E0,8.659827232E0,4.544194698E0
4.034768497E0,-1.017535686E0,8.662221909E0,4.525041103E0
4.037559305E0,-9.935936928E-1,8.683769226E0,4.486733913E0
4.038748882E0,-9.792284966E-1,8.707711220E0,4.429273129E0
4.041664612E0,-9.672574997E-1,8.729259491E0,4.374206543E0
4.042869343E0,-9.504981041E-1,8.760383606E0,4.345476151E0
4.045491728E0,-9.313444495E-1,8.786720276E0,4.338293552E0
4.046995612E0,-9.337386489E-1,8.791508675E0,4.340687752E0
4.049889454E0,-9.361328483E-1,8.781931877E0,4.338293552E0
4.051429689E0,-9.193734527E-1,8.779537201E0,4.355052948E0
4.053416459E0,-8.858546019E-1,8.779537201E0,4.390965939E0
4.055074035E0,-8.547300100E-1,8.774748802E0,4.422090530E0
4.057462189E0,-8.475474119E-1,8.762778282E0,4.453215122E0
4.059933574E0,-8.547300100E-1,8.762778282E0,4.493916512E0
4.061558382E0,-8.667010069E-1,8.750806808E0,4.558559895E0
4.063285612E0,-8.643068075E-1,8.722076416E0,4.647145271E0
4.065688459E0,-8.523358107E-1,8.671798706E0,4.718971729E0
4.067426035E0,-8.403648138E-1,8.635885239E0,4.766855717E0
4.069903612E0,-8.667010069E-1,8.647856712E0,4.836287498E0
4.071764766E0,-8.906430602E-1,8.652645111E0,4.850652695E0
4.073841651E0,-9.026140571E-1,8.650250435E0,4.836287498E0
4.075553459E0,-9.074024558E-1,8.633491516E0,4.793191910E0
4.077924997E0,-9.026140571E-1,8.633491516E0,4.730942726E0
4.079634343E0,-8.930372596E-1,8.647856712E0,4.661510944E0
4.082007459E0,-8.882488012E-1,8.664615631E0,4.575319290E0
4.083743305E0,-9.026140571E-1,8.667010307E0,4.489128113E0
4.086292497E0,-9.433154464E-1,8.676587105E0,4.390965939E0
4.087940228E0,-1.003170490E0,8.702922821E0,4.280832767E0
4.090624882E0,-1.077390790E0,8.743624687E0,4.170699596E0
4.092153689E0,-1.161187768E0,8.760383606E0,4.053383350E0
4.094794800E0,-1.273715258E0,8.650250435E0,3.837905407E0
4.095944689E0,-1.391031146E0,8.722076416E0,3.713406801E0
4.098863108E0,-1.546654344E0,9.203310966E0,3.912125587E0
4.100198189E0,-1.754949808E0,9.198522568E0,3.732560396E0
4.102966454E0,-1.848323703E0,8.779537201E0,3.442862034E0
4.104259266E0,-1.551442742E0,8.836998940E0,3.909731388E0
4.107069262E0,-8.475474119E-1,8.954314232E0,4.534617901E0
4.108271228E0,-2.106897533E-1,8.319850922E0,4.402936935E0
4.111173223E0,-1.197100878E-1,7.855375767E0,4.311957359E0
4.112581805E0,-2.729389966E-1,8.305485725E0,4.884171486E0
4.115212493E0,-3.160346150E-1,8.839392662E0,5.145139217E0
4.116388382E0,-5.961562395E-1,8.707711220E0,4.800374508E0
4.119281300E0,-1.089361787E0,8.238448143E0,4.493916512E0
4.120480151E0,-1.065419793E0,8.303091049E0,4.788403511E0
4.123384916E0,-7.110779285E-1,8.755595207E0,5.125985622E0
4.124595997E0,-8.954314590E-1,8.894459724E0,4.783615112E0
4.127237574E0,-1.467645645E0,8.544905663E0,3.722983599E0
4.128705266E0,-1.795651317E0,8.599972725E0,3.134010077E0
4.131514612E0,-1.860294700E0,9.074024200E0,3.866635799E0
4.133088958E0,-1.934514999E0,9.150638580E0,4.290409565E0
4.135136420E0,-1.877054095E0,8.889671326E0,4.101267338E0
4.136902651E0,-1.616086125E0,8.662221909E0,3.842693806E0
4.139247958E0,-1.118092179E0,8.669404030E0,4.039018154E0
4.140915420E0,-5.339069963E-1,8.597578049E0,4.407725334E0
4.143340035E0,-2.106897533E-1,8.339004517E0,4.671087742E0
4.145033074E0,-2.537853718E-1,8.123526573E0,4.781220913E0
4.147399535E0,-5.626373887E-1,8.269572258E0,4.946420670E0
4.149123420E0,-1.048660398E0,8.631096840E0,5.193023682E0
4.151625920E0,-1.601720929E0,8.700529099E0,5.295974255E0
4.153421151E0,-1.999158382E0,8.427590370E0,5.339069843E0
4.155543535E0,-2.073378563E0,8.159439087E0,5.523423195E0
4.157224920E0,-1.922544003E0,8.216899872E0,5.839457989E0
4.159628882E0,-1.788468719E0,8.518569946E0,5.911283970E0
4.161389651E0,-1.692700624E0,8.789113998E0,5.516240597E0
4.163687189E0,-1.417367458E0,8.786720276E0,4.841075897E0
4.165461035E0,-8.403648138E-1,8.571242332E0,4.381389141E0
4.167942728E0,-1.364694983E-1,8.427590370E0,4.419696331E0
4.169550651E0,3.663128614E-1,8.439560890E0,4.565742493E0
4.172418339E0,3.327940404E-1,8.573636055E0,4.316745758E0
4.173792228E0,-2.609679997E-1,8.793902397E0,3.663128614E0
4.176473223E0,-1.024718285E0,9.023746490E0,3.059789658E0
4.177645074E0,-1.551442742E0,9.167398453E0,2.899378300E0
4.180540723E0,-1.745373011E0,9.157821655E0,3.150769472E0
4.181739689E0,-1.740584612E0,9.009381294E0,3.394978046E0
4.184642992E0,-1.740584612E0,8.865729332E0,3.332728863E0
4.185841651E0,-1.810016513E0,8.882488251E0,3.107673883E0
4.188745646E0,-1.752555609E0,9.042900085E0,3.165134668E0
4.189961035E0,-1.424550056E0,8.925583839E0,3.641580820E0
4.192847800E0,-9.169792533E-1,8.571242332E0,4.288015366E0
4.194343420E0,-4.357447028E-1,8.214506149E0,4.860229492E0
4.196904992E0,-1.915361285E-1,8.099584579E0,5.214571476E0
4.198073381E0,-2.657563984E-1,8.233659744E0,5.312733650E0
4.200972800E0,-5.698199868E-1,8.389283180E0,5.300762653E0
4.202211266E0,-8.882488012E-1,8.382100105E0,5.439626217E0
4.205075915E0,-1.019929886E0,8.269572258E0,5.829881191E0
4.206288381E0,-9.959878922E-1,8.188169479E0,6.244078159E0
4.208936497E0,-1.048660398E0,8.190564156E0,6.301538944E0
4.210443074E0,-1.259350061E0,8.269572258E0,5.916072369E0
4.213251651E0,-1.431732655E0,8.432378769E0,5.394136429E0
4.214660920E0,-1.379060149E0,8.616731644E0,5.145139217E0
4.216827420E0,-1.113303781E0,8.705317497E0,5.190629482E0
4.218758535E0,-7.445967197E-1,8.647856712E0,5.202600479E0
4.220889074E0,-3.902548850E-1,8.559270859E0,4.915296078E0
4.222629958E0,-1.436520964E-1,8.614337921E0,4.393360138E0
4.225498608E0,-3.351882473E-2,8.793902397E0,3.861847401E0
4.226769343E0,-5.267243832E-2,8.971074104E0,3.519476414E0
4.229222228E0,-2.035071403E-1,9.052476883E0,3.411737442E0
