"Time (s)","Gyroscope x (rad/s)","Gyroscope y (rad/s)","Gyroscope z (rad/s)"
9.557077000E-3,-1.059938148E-1,-1.012001187E-2,1.118527725E-2
1.078534600E-2,-1.059938148E-1,-1.012001187E-2,1.118527725E-2
1.371466200E-2,-1.059938148E-1,-1.012001187E-2,1.118527725E-2
1.523334600E-2,-1.059938148E-1,-1.012001187E-2,1.118527725E-2
1.776003800E-2,-1.059938148E-1,-1.012001187E-2,1.118527725E-2
1.907319200E-2,-1.059938148E-1,-1.012001187E-2,1.118527725E-2
2.184246100E-2,-1.059938148E-1,-1.012001187E-2,1.118527725E-2
2.305800000E-2,-1.059938148E-1,-1.012001187E-2,1.118527725E-2
2.597384600E-2,-1.059938148E-1,-1.012001187E-2,1.118527725E-2
2.727419200E-2,-1.059938148E-1,-1.012001187E-2,1.118527725E-2
3.006047000E-2,-1.059938148E-1,-1.012001187E-2,1.118527725E-2
3.122107700E-2,-1.059938148E-1,-1.012001187E-2,1.118527725E-2
3.412939300E-2,-1.059938148E-1,-1.012001187E-2,1.118527725E-2
3.540626900E-2,-1.059938148E-1,-1.012001187E-2,1.118527725E-2
3.822930800E-2,-1.059938148E-1,-1.012001187E-2,1.118527725E-2
3.944665400E-2,-1.059938148E-1,-1.012001187E-2,1.118527725E-2
4.207757700E-2,-9.321063757E-2,-1.225054078E-2,9.054748341E-3
4.353384600E-2,-1.022653878E-1,-7.456851192E-3,7.989482954E-3
4.633607700E-2,-9.427590668E-2,-6.391586736E-3,0.000000000E0
4.763946100E-2,-8.628641814E-2,-7.456851192E-3,-1.597896684E-3
4.983584600E-2,-6.231797114E-2,-1.384843793E-2,-3.195793368E-3
5.152592300E-2,-4.527373984E-2,-1.118527725E-2,-5.326322280E-4
5.393730800E-2,-2.077265643E-2,-6.391586736E-3,2.130528912E-3
5.564688400E-2,3.195793368E-3,-1.065264456E-3,2.663161140E-3
5.855931600E-2,2.929477207E-2,2.130528912E-3,2.130528912E-3
5.982711500E-2,5.166532472E-2,5.326322280E-3,1.597896684E-3
6.218276900E-2,6.604639441E-2,6.924218964E-3,1.597896684E-3
6.389969200E-2,7.669904083E-2,7.456851192E-3,2.130528912E-3
6.639303800E-2,7.989483327E-2,7.989482954E-3,1.597896684E-3
6.812650000E-2,7.989483327E-2,7.456851192E-3,-1.065264456E-3
7.038419200E-2,7.510114461E-2,4.793690052E-3,-1.597896684E-3
7.210742300E-2,6.870955974E-2,4.261057824E-3,0.000000000E0
7.453269200E-2,5.113269389E-2,3.728425596E-3,2.130528912E-3
7.616673100E-2,3.302319720E-2,7.456851192E-3,9.054748341E-3
7.860557700E-2,1.438106969E-2,5.858954508E-3,1.118527725E-2
8.030657700E-2,-3.728425596E-3,1.597896684E-3,9.587380104E-3
8.271592300E-2,-2.237055451E-2,-1.597896684E-3,9.054748341E-3
8.441557700E-2,-4.207794741E-2,-1.065264456E-3,7.456851192E-3
8.711961500E-2,-6.178534031E-2,-2.663161140E-3,5.858954508E-3
8.872569200E-2,-7.350324839E-2,-5.858954508E-3,5.326322280E-3
9.135465400E-2,-7.723167539E-2,-9.054748341E-3,3.728425596E-3
9.248780800E-2,-7.510114461E-2,-9.587380104E-3,2.663161140E-3
9.538676900E-2,-6.498113275E-2,-9.054748341E-3,3.195793368E-3
9.668588400E-2,-5.858954415E-2,-1.597896684E-3,4.793690052E-3
9.949973100E-2,-4.953479767E-2,6.924218964E-3,3.728425596E-3
1.007322310E-1,-2.929477207E-2,6.924218964E-3,2.663161140E-3
1.036162690E-1,-1.171790902E-2,4.261057824E-3,5.326322280E-4
1.048131540E-1,4.793690052E-3,0.000000000E0,-3.195793368E-3
1.077428840E-1,2.024002373E-2,-3.195793368E-3,-6.924218964E-3
1.091015000E-1,3.195793182E-2,4.793690052E-3,-3.728425596E-3
1.117516920E-1,3.888215125E-2,7.989482954E-3,5.326322280E-4
1.129122690E-1,4.527373984E-2,1.171790902E-2,4.793690052E-3
1.158575080E-1,5.486112088E-2,9.587380104E-3,7.989482954E-3
1.170415770E-1,6.391586363E-2,6.391586736E-3,5.858954508E-3
1.199610850E-1,6.178534031E-2,1.597896684E-3,6.924218964E-3
1.211814230E-1,5.060006306E-2,5.326322280E-3,9.054748341E-3
1.237748070E-1,3.408846259E-2,6.924218964E-3,1.118527725E-2
1.252441920E-1,1.970739290E-2,3.195793368E-3,1.171790902E-2
1.281030770E-1,6.391586736E-3,-4.261057824E-3,1.012001187E-2
1.294981920E-1,-1.597896684E-3,-1.118527725E-2,8.522115648E-3
1.318765770E-1,-1.544633508E-2,-1.438106969E-2,8.522115648E-3
1.334371540E-1,-2.822950855E-2,-6.924218964E-3,1.065264456E-2
1.358725380E-1,-3.941478580E-2,0.000000000E0,1.225054078E-2
1.376501540E-1,-5.273059011E-2,5.326322280E-4,1.118527725E-2
1.399511540E-1,-5.166532472E-2,-2.130528912E-3,9.054748341E-3
1.417296150E-1,-4.953479767E-2,-9.587380104E-3,4.793690052E-3
1.440593840E-1,-4.740426689E-2,-1.118527725E-2,1.065264456E-3
1.458068840E-1,-4.846953228E-2,-1.065264456E-2,-5.326322280E-4
1.482905770E-1,-4.527373984E-2,-4.261057824E-3,5.326322280E-4
1.501120380E-1,-3.621899337E-2,-2.130528912E-3,-2.130528912E-3
1.522679610E-1,-2.556634694E-2,1.597896684E-3,-1.065264456E-3
1.539155000E-1,-7.989482954E-3,-4.261057824E-3,-5.326322280E-4
1.563045380E-1,1.278317347E-2,-3.728425596E-3,-1.597896684E-3
1.579928840E-1,2.024002373E-2,1.065264456E-3,0.000000000E0
1.603811920E-1,2.183792181E-2,3.728425596E-3,4.261057824E-3
1.621454610E-1,2.556634694E-2,4.261057824E-3,4.793690052E-3
1.645811150E-1,2.982740477E-2,-3.195793368E-3,2.130528912E-3
1.662054610E-1,3.834952042E-2,-9.054748341E-3,-1.597896684E-3
1.689428460E-1,4.154531285E-2,-7.989482954E-3,-1.597896684E-3
1.704860770E-1,3.249056637E-2,-4.793690052E-3,2.130528912E-3
1.731504690E-1,2.503371425E-2,3.195793368E-3,5.326322280E-3
1.743723460E-1,1.757686399E-2,5.858954508E-3,8.522115648E-3
1.772188150E-1,1.225054078E-2,2.663161140E-3,7.456851192E-3
1.784358070E-1,7.456851192E-3,-6.391586736E-3,3.728425596E-3
1.813222000E-1,-5.326322280E-4,-1.171790902E-2,1.597896684E-3
1.826309610E-1,-1.331580617E-2,-1.171790902E-2,1.597896684E-3
1.854249690E-1,-2.290318534E-2,-1.065264456E-2,0.000000000E0
1.867361920E-1,-3.515372798E-2,-5.326322280E-3,2.130528912E-3
1.895284310E-1,-3.302319720E-2,-6.391586736E-3,5.326322280E-4
1.909109230E-1,-2.822950855E-2,-6.924218964E-3,-1.065264456E-3
1.935669690E-1,-2.609897964E-2,-7.989482954E-3,-3.195793368E-3
1.947208070E-1,-2.396845073E-2,-6.391586736E-3,-1.597896684E-3
1.976351610E-1,-2.396845073E-2,1.597896684E-3,-2.663161140E-3
1.988596540E-1,-1.917476021E-2,1.597896684E-3,-1.065264456E-3
2.017379690E-1,-1.331580617E-2,-4.261057824E-3,-3.195793368E-3
2.029786540E-1,-2.663161140E-3,-6.391586736E-3,-4.793690052E-3
2.056588840E-1,6.391586736E-3,-1.171790902E-2,-6.924218964E-3
2.071019230E-1,1.225054078E-2,-6.924218964E-3,-6.924218964E-3
2.099451150E-1,1.225054078E-2,5.858954508E-3,-2.130528912E-3
2.115195770E-1,1.864212751E-2,7.989482954E-3,-1.065264456E-3
2.135743460E-1,2.450108156E-2,7.989482954E-3,0.000000000E0
2.153047310E-1,2.716424316E-2,1.065264456E-3,-5.326322280E-4
2.176152310E-1,2.716424316E-2,-1.597896684E-3,-1.597896684E-3
2.193795000E-1,2.237055451E-2,-3.195793368E-3,0.000000000E0
2.217113070E-1,1.597896591E-2,-2.663161140E-3,2.130528912E-3
2.233828840E-1,7.456851192E-3,5.326322280E-4,3.195793368E-3
2.257647300E-1,1.597896684E-3,-1.065264456E-3,2.130528912E-3
2.275026920E-1,-3.195793368E-3,-2.663161140E-3,2.130528912E-3
2.300008070E-1,-3.728425596E-3,-3.728425596E-3,2.663161140E-3
2.318229230E-1,-7.456851192E-3,-1.065264456E-3,3.728425596E-3
2.339380000E-1,-1.491370238E-2,1.065264456E-3,5.326322280E-3
2.356956150E-1,-2.290318534E-2,1.597896684E-3,3.728425596E-3
2.382207300E-1,-2.396845073E-2,-1.597896684E-3,1.065264456E-3
2.396941540E-1,-2.237055451E-2,-5.858954508E-3,0.000000000E0
2.420666150E-1,-1.970739290E-2,-1.065264456E-2,-1.065264456E-3
2.438039610E-1,-1.597896591E-2,-7.456851192E-3,-2.663161140E-3
2.462591540E-1,-1.597896591E-2,-3.728425596E-3,-5.326322280E-4
2.478971150E-1,-1.225054078E-2,2.663161140E-3,1.065264456E-3
2.507957000E-1,-7.989482954E-3,7.456851192E-3,2.130528912E-3
2.524060770E-1,-1.065264456E-3,3.728425596E-3,3.195793368E-3
2.548525460E-1,6.391586736E-3,5.326322280E-4,2.130528912E-3
2.560380380E-1,8.522115648E-3,-1.597896684E-3,2.130528912E-3
2.589213150E-1,8.522115648E-3,-2.663161140E-3,2.663161140E-3
2.601088840E-1,1.597896684E-3,4.793690052E-3,2.130528912E-3
2.630243150E-1,-7.510114461E-2,4.846953228E-2,-5.326322280E-4
2.642444610E-1,-1.454086006E-1,6.391586363E-2,2.024002373E-2
2.671272000E-1,-1.470064968E-1,1.757686399E-2,1.810949668E-2
2.683896540E-1,-9.960222989E-2,-2.450108156E-2,-9.587380104E-3
2.712304690E-1,-6.870955974E-2,-1.113201380E-1,9.054748341E-3
2.726847690E-1,-8.948221803E-2,-5.752427876E-2,2.396845073E-2
2.752767760E-1,-9.321063757E-2,8.522115648E-3,3.515372798E-2
2.765191920E-1,-7.030745596E-2,3.249056637E-2,3.462109342E-2
2.793450460E-1,-2.183792181E-2,2.982740477E-2,1.864212751E-2
2.805753460E-1,4.207794741E-2,-2.130528912E-3,-3.195793368E-3
2.834478530E-1,9.214537591E-2,-1.278317347E-2,-2.024002373E-2
2.847437300E-1,1.001348570E-1,8.522115648E-3,-1.704423130E-2
2.874320380E-1,7.297061384E-2,3.941478580E-2,9.587380104E-3
2.887978070E-1,4.953479767E-2,6.231797114E-2,2.290318534E-2
2.916556610E-1,5.752427876E-2,3.781688958E-2,2.183792181E-2
2.931344610E-1,8.149272949E-2,-2.343581803E-2,1.438106969E-2
2.952335380E-1,8.681905270E-2,-6.285060197E-2,8.522115648E-3
2.968836540E-1,5.486112088E-2,-6.285060197E-2,1.597896591E-2
2.993060770E-1,-3.195793368E-3,-1.118527725E-2,2.290318534E-2
3.011495000E-1,-5.858954415E-2,4.101268202E-2,2.024002373E-2
3.038748150E-1,-8.309062570E-2,4.846953228E-2,5.858954508E-3
3.050862690E-1,-7.669904083E-2,2.024002373E-2,-1.384843793E-2
3.075104230E-1,-7.190535218E-2,-1.810949668E-2,-2.822950855E-2
3.092096150E-1,-8.255799860E-2,-3.089267015E-2,-2.290318534E-2
3.117221150E-1,-1.134506613E-1,-1.171790902E-2,-8.522115648E-3
3.134881540E-1,-1.326254308E-1,-5.326322280E-4,8.522115648E-3
3.156630380E-1,-1.230380461E-1,1.597896684E-3,1.278317347E-2
3.173786150E-1,-9.161274135E-2,-1.331580617E-2,4.261057824E-3
3.197000380E-1,-6.231797114E-2,-2.822950855E-2,-1.597896684E-3
3.214260000E-1,-4.633900523E-2,-2.769687586E-2,-4.793690052E-3
3.237948070E-1,-3.728425503E-2,-7.989482954E-3,-1.065264456E-3
3.255369610E-1,-2.982740477E-2,1.491370238E-2,-3.195793368E-3
3.279946530E-1,-7.456851192E-3,3.089267015E-2,-1.012001187E-2
3.296350000E-1,1.810949668E-2,1.651159860E-2,-1.438106969E-2
3.324277690E-1,5.166532472E-2,-5.858954508E-3,-1.544633508E-2
3.340324230E-1,7.350324839E-2,-1.651159860E-2,-9.587380104E-3
3.365794690E-1,7.297061384E-2,-8.522115648E-3,2.663161140E-3
3.377746920E-1,6.551376730E-2,8.522115648E-3,1.491370238E-2
3.406471610E-1,5.965480953E-2,1.864212751E-2,1.810949668E-2
3.418622300E-1,5.539375171E-2,1.491370238E-2,1.171790902E-2
3.447503530E-1,5.006742850E-2,0.000000000E0,3.728425596E-3
3.459504610E-1,3.462109342E-2,-1.012001187E-2,1.065264456E-3
3.488536220E-1,1.384843793E-2,-1.438106969E-2,-5.326322280E-4
3.500750770E-1,-6.391586736E-3,-9.054748341E-3,1.065264456E-3
3.529574300E-1,-1.864212751E-2,-4.261057824E-3,-1.065264456E-3
3.543667300E-1,-2.450108156E-2,-4.261057824E-3,3.728425596E-3
3.569949680E-1,-2.929477207E-2,-5.858954508E-3,6.391586736E-3
3.581714610E-1,-2.769687586E-2,-1.171790902E-2,7.989482954E-3
3.610637380E-1,-2.556634694E-2,-1.597896591E-2,1.118527725E-2
3.622646150E-1,-3.142530099E-2,-1.331580617E-2,9.587380104E-3
3.651666610E-1,-3.941478580E-2,-3.728425596E-3,4.261057824E-3
3.664257300E-1,-4.740426689E-2,3.195793368E-3,-1.065264456E-3
3.691626530E-1,-3.941478580E-2,5.326322280E-4,-6.391586736E-3
3.705303070E-1,-2.130528912E-2,-1.012001187E-2,-7.989482954E-3
3.733742380E-1,5.326322280E-4,-1.917476021E-2,-8.522115648E-3
3.747480770E-1,1.810949668E-2,-1.757686399E-2,1.597896684E-3
3.767580770E-1,2.876213938E-2,-2.663161140E-3,5.858954508E-3
3.785984230E-1,3.888215125E-2,1.171790902E-2,1.278317347E-2
3.810826530E-1,4.420847446E-2,1.544633508E-2,1.438106969E-2
3.827181530E-1,5.326322466E-2,5.326322280E-3,1.118527725E-2
3.851636920E-1,6.764429063E-2,-1.278317347E-2,-2.130528912E-3
3.868993070E-1,6.817692518E-2,-1.704423130E-2,-4.793690052E-3
3.892238840E-1,6.391586363E-2,-1.278317347E-2,-5.858954508E-3
3.909156150E-1,5.539375171E-2,2.663161140E-3,5.326322280E-4
3.934223070E-1,5.219795927E-2,1.065264456E-2,6.924218964E-3
3.952601530E-1,5.539375171E-2,9.054748341E-3,1.278317347E-2
3.973935770E-1,6.391586363E-2,-4.261057824E-3,1.917476021E-2
3.990690000E-1,6.924218684E-2,-1.544633508E-2,2.290318534E-2
4.014799610E-1,2.130528912E-2,2.663161233E-2,2.077265643E-2
4.032891530E-1,-5.326322466E-2,5.006742850E-2,1.651159860E-2
4.056150380E-1,-5.326322466E-2,-4.420847446E-2,1.864212751E-2
4.073187300E-1,1.864212751E-2,-4.207794741E-2,-2.822950855E-2
4.097388070E-1,3.408846259E-2,-4.846953228E-2,-1.970739290E-2
4.114115380E-1,-1.704423130E-2,-8.788431436E-2,4.793690145E-2
4.140984610E-1,-3.249056637E-2,1.704423130E-2,4.048004746E-2
4.156327690E-1,7.989482954E-3,5.379585549E-2,1.757686399E-2
4.182794680E-1,2.982740477E-2,1.597896591E-2,1.491370238E-2
4.194745770E-1,-2.130528912E-3,4.474110901E-2,-5.326322280E-4
4.223484300E-1,-4.207794741E-2,3.941478580E-2,-1.278317347E-2
4.235576920E-1,-1.065264456E-2,-2.450108156E-2,-2.237055451E-2
4.264523140E-1,2.982740477E-2,-1.864212751E-2,-4.048004746E-2
4.276673460E-1,-6.391586736E-3,-3.142530099E-2,-5.326322280E-4
4.305563530E-1,-5.486112088E-2,-3.568635881E-2,4.687163606E-2
4.317800770E-1,-2.769687586E-2,9.587380104E-3,3.036003746E-2
4.346607370E-1,4.154531285E-2,-1.278317347E-2,7.989482954E-3
4.360799610E-1,7.243798673E-2,-4.900216311E-2,1.331580617E-2
4.386996990E-1,5.273059011E-2,-2.024002373E-2,2.077265643E-2
4.399506150E-1,2.929477207E-2,3.195793182E-2,1.012001187E-2
4.427690450E-1,2.024002373E-2,6.711166352E-2,-5.326322280E-3
4.439841530E-1,1.012001187E-2,4.900216311E-2,-9.054748341E-3
4.468738910E-1,1.917476021E-2,-1.704423130E-2,-1.012001187E-2
4.481416920E-1,2.822950855E-2,-3.089267015E-2,-1.704423130E-2
4.507280380E-1,2.876213938E-2,-3.728425503E-2,-2.663161140E-3
4.521760760E-1,1.171790902E-2,-2.290318534E-2,2.503371425E-2
4.550825830E-1,-5.326322280E-4,-5.326322280E-3,4.261057824E-2
4.565155380E-1,-6.391586736E-3,1.171790902E-2,4.154531285E-2
4.586440000E-1,-1.970739290E-2,2.982740477E-2,2.556634694E-2
4.603681530E-1,-3.781688958E-2,9.054748341E-3,1.225054078E-2
4.627937690E-1,-4.740426689E-2,-2.024002373E-2,-2.130528912E-3
4.644511920E-1,-4.633900523E-2,-2.929477207E-2,-1.810949668E-2
4.668163070E-1,-5.273059011E-2,-2.237055451E-2,-2.343581803E-2
4.686212690E-1,-6.285060197E-2,-3.728425596E-3,-1.491370238E-2
4.709278840E-1,-5.273059011E-2,5.326322280E-4,1.065264456E-3
4.727425380E-1,-1.757686399E-2,-5.326322280E-3,9.587380104E-3
4.751226530E-1,1.651159860E-2,-5.326322280E-3,1.384843793E-2
4.768985380E-1,1.757686399E-2,7.456851192E-3,2.290318534E-2
4.790555380E-1,-4.793690052E-3,1.331580617E-2,2.929477207E-2
4.807500380E-1,-1.171790902E-2,6.391586736E-3,1.864212751E-2
4.831380380E-1,2.130528912E-3,-1.438106969E-2,-4.793690052E-3
4.848632690E-1,1.171790902E-2,-3.355583176E-2,-2.024002373E-2
4.872469610E-1,1.065264456E-2,-3.728425503E-2,-1.651159860E-2
4.889841530E-1,1.171790902E-2,-2.237055451E-2,-9.054748341E-3
4.914945380E-1,2.503371425E-2,-5.326322280E-4,0.000000000E0
4.930674230E-1,3.728425503E-2,1.970739290E-2,1.225054078E-2
4.958378460E-1,3.728425503E-2,2.876213938E-2,2.503371425E-2
4.974145380E-1,2.609897964E-2,2.556634694E-2,3.036003746E-2
5.000010060E-1,2.343581803E-2,1.597896684E-3,1.917476021E-2
5.014508070E-1,1.917476021E-2,-2.503371425E-2,3.195793368E-3
5.040702370E-1,-1.225054078E-2,-3.675162420E-2,-4.261057824E-3
5.053605380E-1,-3.675162420E-2,-2.663161233E-2,-3.728425596E-3
5.081738910E-1,-3.621899337E-2,-1.065264456E-2,-4.261057824E-3
5.093874230E-1,-2.130528912E-2,-4.261057824E-3,-3.195793368E-3
5.122773520E-1,-9.587380104E-3,1.065264456E-3,8.522115648E-3
5.135180000E-1,-1.065264456E-2,1.171790902E-2,1.757686399E-2
5.163818140E-1,-1.384843793E-2,1.757686399E-2,1.757686399E-2
5.178088460E-1,-1.704423130E-2,1.331580617E-2,1.331580617E-2
5.204297760E-1,-2.503371425E-2,-9.054748341E-3,4.793690052E-3
5.215891530E-1,-2.503371425E-2,-2.290318534E-2,-2.130528912E-3
5.244989680E-1,-2.237055451E-2,-3.195793182E-2,-1.118527725E-2
5.257237690E-1,-1.597896591E-2,-3.089267015E-2,-9.587380104E-3
5.286038520E-1,-9.054748341E-3,-1.438106969E-2,-4.793690052E-3
5.299064610E-1,2.130528912E-3,8.522115648E-3,6.391586736E-3
5.327088520E-1,1.118527725E-2,2.663161233E-2,1.384843793E-2
5.339306920E-1,1.970739290E-2,3.568635881E-2,1.597896591E-2
5.368139290E-1,2.450108156E-2,2.237055451E-2,1.704423130E-2
5.381776150E-1,1.864212751E-2,1.065264456E-3,1.012001187E-2
5.403321920E-1,1.597896591E-2,-2.024002373E-2,2.130528912E-3
5.420752300E-1,8.522115648E-3,-2.609897964E-2,-1.065264456E-3
5.444331530E-1,5.326322280E-4,-2.237055451E-2,-1.065264456E-3
5.461238840E-1,-4.793690052E-3,-1.331580617E-2,3.728425596E-3
5.490330450E-1,-2.663161140E-3,-1.597896684E-3,8.522115648E-3
5.503720380E-1,7.989482954E-3,7.456851192E-3,1.278317347E-2
5.526607690E-1,6.924218964E-3,1.970739290E-2,2.024002373E-2
5.544081530E-1,-5.326322280E-4,2.290318534E-2,2.183792181E-2
5.568829230E-1,-1.864212751E-2,3.728425596E-3,1.491370238E-2
5.586547300E-1,-2.450108156E-2,-1.331580617E-2,4.793690052E-3
5.607893840E-1,-3.302319720E-2,-3.036003746E-2,1.065264456E-3
5.624843460E-1,-3.515372798E-2,-3.142530099E-2,-5.326322280E-4
5.648726150E-1,-2.929477207E-2,-2.609897964E-2,2.663161140E-3
5.665841920E-1,-2.450108156E-2,-1.012001187E-2,6.924218964E-3
5.689871530E-1,-1.651159860E-2,9.054748341E-3,1.384843793E-2
5.707314610E-1,-1.171790902E-2,2.343581803E-2,2.077265643E-2
5.731716530E-1,-9.587380104E-3,2.183792181E-2,2.077265643E-2
5.747979230E-1,-4.261057824E-3,6.924218964E-3,1.438106969E-2
5.775262690E-1,5.326322280E-4,-1.118527725E-2,5.858954508E-3
5.791069990E-1,-1.065264456E-3,-2.609897964E-2,0.000000000E0
5.817499680E-1,-3.195793368E-3,-2.556634694E-2,5.326322280E-4
5.829261150E-1,-4.793690052E-3,-1.704423130E-2,2.130528912E-3
5.858193910E-1,3.195793368E-3,-7.456851192E-3,7.989482954E-3
5.870858840E-1,9.587380104E-3,2.663161140E-3,1.171790902E-2
5.899243910E-1,1.597896591E-2,1.065264456E-2,1.704423130E-2
5.911274230E-1,1.651159860E-2,1.704423130E-2,2.077265643E-2
5.940281600E-1,1.384843793E-2,1.278317347E-2,1.917476021E-2
5.952071150E-1,6.924218964E-3,-1.597896684E-3,1.384843793E-2
5.981321210E-1,-3.728425596E-3,-1.597896591E-2,7.456851192E-3
5.995409610E-1,-6.924218964E-3,-2.503371425E-2,1.597896684E-3
6.021702370E-1,-7.989482954E-3,-2.822950855E-2,5.326322280E-4
6.033288840E-1,-1.012001187E-2,-1.917476021E-2,2.663161140E-3
6.062398910E-1,-1.065264456E-2,-7.456851192E-3,8.522115648E-3
6.074286920E-1,-1.065264456E-2,9.587380104E-3,1.225054078E-2
6.103346920E-1,-1.065264456E-2,2.024002373E-2,1.597896591E-2
6.115239990E-1,-1.065264456E-2,1.651159860E-2,1.864212751E-2
6.141913460E-1,-1.331580617E-2,-7.456851192E-3,9.054748341E-3
6.156856920E-1,-1.278317347E-2,-2.237055451E-2,2.663161140E-3
6.185516980E-1,-1.597896591E-2,-2.982740477E-2,-3.728425596E-3
6.199303840E-1,-1.970739290E-2,-2.396845073E-2,-5.326322280E-4
6.220745380E-1,-2.130528912E-2,-7.989482954E-3,3.195793368E-3
6.237663070E-1,-9.054748341E-3,2.663161140E-3,7.989482954E-3
6.261458070E-1,1.065264456E-3,1.278317347E-2,7.989482954E-3
6.278610760E-1,6.924218964E-3,1.544633508E-2,1.331580617E-2
6.302221920E-1,5.326322280E-3,1.384843793E-2,1.225054078E-2
6.319896530E-1,3.195793368E-3,8.522115648E-3,1.012001187E-2
6.343781150E-1,5.326322280E-4,-6.391586736E-3,4.261057824E-3
6.361168840E-1,-3.728425596E-3,-1.810949668E-2,1.065264456E-3
6.385837300E-1,-5.326322280E-3,-2.609897964E-2,-1.065264456E-3
6.404472300E-1,-4.793690052E-3,-1.864212751E-2,1.597896684E-3
6.425170380E-1,5.326322280E-4,-8.522115648E-3,2.663161140E-3
6.441992300E-1,2.663161140E-3,3.728425596E-3,1.012001187E-2
6.465943070E-1,0.000000000E0,1.544633508E-2,1.438106969E-2
6.483288070E-1,1.597896684E-3,2.024002373E-2,1.597896591E-2
6.507124610E-1,1.065264456E-3,7.989482954E-3,1.278317347E-2
6.524697300E-1,0.000000000E0,-7.989482954E-3,6.391586736E-3
6.548923840E-1,-9.587380104E-3,-2.183792181E-2,2.130528912E-3
6.565467690E-1,-1.331580617E-2,-2.716424316E-2,0.000000000E0
6.593439990E-1,-1.544633508E-2,-2.130528912E-2,1.065264456E-3
6.608039610E-1,-1.438106969E-2,-1.171790902E-2,5.858954508E-3
6.634773900E-1,-1.171790902E-2,-1.065264456E-3,9.054748341E-3
6.646334610E-1,-5.858954508E-3,6.924218964E-3,1.331580617E-2
6.675465440E-1,-5.326322280E-4,9.054748341E-3,1.118527725E-2
6.687613840E-1,-3.728425596E-3,6.391586736E-3,1.331580617E-2
6.716512360E-1,-1.065264456E-2,-4.261057824E-3,7.456851192E-3
6.728496150E-1,-1.171790902E-2,-1.597896591E-2,4.261057824E-3
6.757559290E-1,-1.065264456E-2,-2.396845073E-2,0.000000000E0
6.769572690E-1,-1.118527725E-2,-2.343581803E-2,1.597896684E-3
6.798605440E-1,-6.924218964E-3,-1.544633508E-2,5.326322280E-3
6.812360380E-1,5.326322280E-4,0.000000000E0,1.065264456E-2
6.839010440E-1,3.195793368E-3,1.225054078E-2,1.491370238E-2
6.851429990E-1,1.065264456E-3,1.384843793E-2,1.704423130E-2
6.879713900E-1,-2.663161140E-3,1.278317347E-2,1.491370238E-2
6.893375760E-1,-1.597896684E-3,1.065264456E-3,8.522115648E-3
6.920762750E-1,-2.663161140E-3,-1.331580617E-2,3.728425596E-3
6.933473460E-1,-1.012001187E-2,-2.183792181E-2,3.195793368E-3
6.959024220E-1,-1.384843793E-2,-2.183792181E-2,2.130528912E-3
6.974000760E-1,-1.278317347E-2,-1.171790902E-2,5.326322280E-3
7.002846590E-1,-1.065264456E-2,-3.728425596E-3,9.054748341E-3
7.018370760E-1,-6.391586736E-3,4.261057824E-3,1.438106969E-2
7.038746150E-1,-4.793690052E-3,1.012001187E-2,1.544633508E-2
7.056010760E-1,-6.924218964E-3,1.012001187E-2,1.278317347E-2
7.079029220E-1,-3.728425596E-3,1.065264456E-3,1.065264456E-2
7.096417690E-1,-1.118527725E-2,-3.728425596E-3,7.989482954E-3
7.119907690E-1,-1.597896591E-2,-1.438106969E-2,3.728425596E-3
7.137316150E-1,-1.704423130E-2,-1.864212751E-2,1.065264456E-3
7.161314610E-1,-1.491370238E-2,-1.757686399E-2,1.597896684E-3
7.178466150E-1,-1.118527725E-2,-1.331580617E-2,6.391586736E-3
7.203570380E-1,-4.793690052E-3,1.065264456E-3,1.278317347E-2
7.221033460E-1,-3.728425596E-3,8.522115648E-3,1.491370238E-2
7.242608840E-1,-5.326322280E-4,1.225054078E-2,1.651159860E-2
7.259473070E-1,0.000000000E0,7.456851192E-3,1.438106969E-2
7.283073460E-1,1.597896684E-3,-2.130528912E-3,9.587380104E-3
7.300223840E-1,-2.130528912E-3,-1.544633508E-2,3.195793368E-3
7.324262690E-1,-5.858954508E-3,-1.864212751E-2,1.597896684E-3
7.341539990E-1,-9.587380104E-3,-1.384843793E-2,4.793690052E-3
7.367178460E-1,-5.858954508E-3,-5.326322280E-3,6.924218964E-3
7.382668840E-1,5.326322280E-4,2.130528912E-3,9.054748341E-3
7.411468900E-1,5.326322280E-3,7.989482954E-3,1.384843793E-2
7.427684990E-1,1.597896684E-3,7.989482954E-3,1.544633508E-2
7.452029290E-1,5.326322280E-4,3.728425596E-3,1.491370238E-2
7.463632300E-1,-5.858954508E-3,-5.326322280E-4,1.065264456E-2
7.492714280E-1,-1.065264456E-2,-1.012001187E-2,5.858954508E-3
7.504973840E-1,-1.438106969E-2,-1.597896591E-2,4.261057824E-3
7.533760050E-1,-1.597896591E-2,-1.810949668E-2,3.195793368E-3
7.546340760E-1,-1.225054078E-2,-1.171790902E-2,4.261057824E-3
7.574801980E-1,-8.522115648E-3,-4.793690052E-3,8.522115648E-3
7.586791530E-1,-7.456851192E-3,7.456851192E-3,1.278317347E-2
7.615835820E-1,-6.924218964E-3,1.065264456E-2,1.438106969E-2
7.631631150E-1,-5.858954508E-3,8.522115648E-3,1.491370238E-2
7.656415820E-1,-7.456851192E-3,2.130528912E-3,1.118527725E-2
7.668269220E-1,-8.522115648E-3,-1.012001187E-2,7.456851192E-3
7.697098510E-1,-1.065264456E-2,-1.651159860E-2,2.663161140E-3
7.709553070E-1,-1.491370238E-2,-1.864212751E-2,2.663161140E-3
7.738136590E-1,-1.171790902E-2,-1.438106969E-2,3.728425596E-3
7.750418070E-1,-7.989482954E-3,-7.456851192E-3,7.456851192E-3
7.776408070E-1,-4.261057824E-3,-1.597896684E-3,9.587380104E-3
7.791001920E-1,5.326322280E-4,5.326322280E-3,1.278317347E-2
7.820103070E-1,2.130528912E-3,5.858954508E-3,1.491370238E-2
7.834345380E-1,5.326322280E-4,-1.065264456E-3,1.278317347E-2
7.856050760E-1,-1.065264456E-3,-5.326322280E-3,1.012001187E-2
7.872529610E-1,-6.391586736E-3,-1.438106969E-2,6.391586736E-3
7.896313450E-1,-7.456851192E-3,-1.651159860E-2,5.326322280E-3
7.913669990E-1,-7.989482954E-3,-1.544633508E-2,6.391586736E-3
7.942409670E-1,-7.989482954E-3,-1.012001187E-2,7.989482954E-3
7.955003070E-1,-2.130528912E-3,-5.326322280E-4,1.065264456E-2
7.980640760E-1,-1.065264456E-3,5.326322280E-3,1.331580617E-2
7.996861150E-1,-4.261057824E-3,6.391586736E-3,1.651159860E-2
8.020957300E-1,-4.793690052E-3,2.663161140E-3,1.171790902E-2
8.039279990E-1,-7.456851192E-3,-5.326322280E-3,7.456851192E-3
8.060613840E-1,-9.054748341E-3,-1.331580617E-2,4.261057824E-3
8.076789610E-1,-1.384843793E-2,-1.810949668E-2,5.326322280E-3
8.100657300E-1,-1.438106969E-2,-1.544633508E-2,4.793690052E-3
8.117839990E-1,-1.225054078E-2,-1.012001187E-2,5.858954508E-3
8.142779610E-1,-9.054748341E-3,-4.793690052E-3,7.989482954E-3
8.159108840E-1,-5.326322280E-3,2.130528912E-3,1.278317347E-2
8.183808450E-1,-4.793690052E-3,3.195793368E-3,1.438106969E-2
8.200629990E-1,-3.728425596E-3,4.793690052E-3,1.491370238E-2
8.227959220E-1,-5.858954508E-3,0.000000000E0,1.012001187E-2
8.243856530E-1,-7.456851192E-3,-1.012001187E-2,7.456851192E-3
8.269623130E-1,-9.054748341E-3,-1.331580617E-2,4.793690052E-3
8.281061920E-1,-8.522115648E-3,-1.384843793E-2,4.793690052E-3
8.310315820E-1,-6.391586736E-3,-9.587380104E-3,5.326322280E-3
8.322294220E-1,-6.391586736E-3,-4.793690052E-3,7.456851192E-3
8.351359670E-1,-3.195793368E-3,1.065264456E-3,1.118527725E-2
8.363607690E-1,-3.728425596E-3,5.858954508E-3,1.118527725E-2
8.392396970E-1,-2.663161140E-3,7.456851192E-3,1.331580617E-2
8.405327300E-1,-4.793690052E-3,4.261057824E-3,1.118527725E-2
8.433432360E-1,-8.522115648E-3,-9.054748341E-3,5.858954508E-3
8.447123840E-1,-9.054748341E-3,-1.278317347E-2,2.130528912E-3
8.473821590E-1,-1.012001187E-2,-1.384843793E-2,3.195793368E-3
8.486267300E-1,-1.171790902E-2,-1.065264456E-2,4.793690052E-3
8.514516970E-1,-9.587380104E-3,-3.728425596E-3,7.456851192E-3
8.526676150E-1,-7.989482954E-3,2.130528912E-3,9.587380104E-3
8.555553510E-1,-1.065264456E-3,5.858954508E-3,1.118527725E-2
8.568524990E-1,-2.130528912E-3,4.261057824E-3,1.331580617E-2
8.594583840E-1,-4.793690052E-3,3.195793368E-3,1.225054078E-2
8.608725760E-1,-5.858954508E-3,-2.663161140E-3,1.012001187E-2
8.637371920E-1,-8.522115648E-3,-1.012001187E-2,6.391586736E-3
8.651329610E-1,-1.118527725E-2,-1.278317347E-2,5.858954508E-3
8.672949220E-1,-1.012001187E-2,-1.225054078E-2,9.054748341E-3
8.690092680E-1,-8.522115648E-3,-4.793690052E-3,7.989482954E-3
8.713954220E-1,-5.858954508E-3,-5.326322280E-4,9.054748341E-3
8.731060760E-1,-3.195793368E-3,2.663161140E-3,1.118527725E-2
8.754762680E-1,-5.858954508E-3,5.326322280E-3,1.384843793E-2
8.772014220E-1,-5.858954508E-3,5.858954508E-3,1.118527725E-2
8.795819610E-1,-3.195793368E-3,-5.326322280E-4,9.054748341E-3
8.814729610E-1,-9.587380104E-3,-1.118527725E-2,5.326322280E-3
8.838923070E-1,-1.225054078E-2,-1.544633508E-2,5.326322280E-3
8.856626920E-1,-1.118527725E-2,-1.438106969E-2,4.793690052E-3
8.877563070E-1,-1.225054078E-2,-9.054748341E-3,6.391586736E-3
8.894663070E-1,-1.171790902E-2,-7.456851192E-3,7.456851192E-3
8.918094990E-1,-1.065264456E-2,1.065264456E-3,1.065264456E-2
8.935021530E-1,-8.522115648E-3,3.728425596E-3,1.065264456E-2
8.959002300E-1,-6.391586736E-3,2.130528912E-3,1.065264456E-2
8.976549990E-1,-9.587380104E-3,-1.065264456E-3,1.118527725E-2
9.001209990E-1,-1.118527725E-2,-7.456851192E-3,7.989482954E-3
9.017676530E-1,-9.587380104E-3,-1.438106969E-2,3.728425596E-3
9.045185380E-1,-1.012001187E-2,-1.491370238E-2,5.858954508E-3
9.060193070E-1,-9.587380104E-3,-8.522115648E-3,9.054748341E-3
9.086656970E-1,-7.456851192E-3,-4.793690052E-3,1.012001187E-2
9.098504610E-1,-3.728425596E-3,-1.065264456E-3,9.587380104E-3
9.127331590E-1,-2.130528912E-3,1.597896684E-3,1.118527725E-2
9.139414990E-1,-3.728425596E-3,1.597896684E-3,1.331580617E-2
9.168361970E-1,-5.326322280E-3,-5.326322280E-4,1.171790902E-2
9.180591150E-1,-4.793690052E-3,-6.391586736E-3,9.054748341E-3
9.209388120E-1,-6.391586736E-3,-1.225054078E-2,4.793690052E-3
9.221748070E-1,-7.456851192E-3,-1.544633508E-2,5.858954508E-3
9.250411970E-1,-8.522115648E-3,-1.065264456E-2,6.924218964E-3
9.264644990E-1,-5.326322280E-3,-6.391586736E-3,8.522115648E-3
9.290780820E-1,-6.391586736E-3,-1.065264456E-3,8.522115648E-3
9.302689220E-1,-7.456851192E-3,5.326322280E-4,1.118527725E-2
9.331456200E-1,-7.989482954E-3,3.728425596E-3,1.225054078E-2
9.343869610E-1,-4.793690052E-3,0.000000000E0,1.118527725E-2
9.372478510E-1,-7.456851192E-3,-3.728425596E-3,1.012001187E-2
9.384705760E-1,-9.054748341E-3,-6.924218964E-3,5.858954508E-3
9.411284220E-1,-9.587380104E-3,-1.065264456E-2,4.793690052E-3
9.425616150E-1,-7.989482954E-3,-1.118527725E-2,5.326322280E-3
9.454520050E-1,-7.456851192E-3,-6.391586736E-3,6.924218964E-3
9.469001150E-1,-6.391586736E-3,-2.130528912E-3,1.065264456E-2
9.489809220E-1,-6.391586736E-3,3.195793368E-3,1.225054078E-2
9.506744610E-1,-4.261057824E-3,4.793690052E-3,1.225054078E-2
9.531600380E-1,-3.195793368E-3,1.597896684E-3,1.118527725E-2
9.549148070E-1,-4.793690052E-3,0.000000000E0,1.012001187E-2
9.572027300E-1,-7.989482954E-3,-5.326322280E-3,9.054748341E-3
9.589361920E-1,-1.065264456E-2,-1.065264456E-2,2.663161140E-3
9.613411530E-1,-1.065264456E-2,-1.171790902E-2,5.326322280E-3
9.631482680E-1,-1.384843793E-2,-5.858954508E-3,6.391586736E-3
9.655328070E-1,-1.171790902E-2,0.000000000E0,1.118527725E-2
9.673270380E-1,-8.522115648E-3,1.065264456E-3,1.171790902E-2
9.694758070E-1,-8.522115648E-3,2.663161140E-3,8.522115648E-3
9.714544990E-1,-1.012001187E-2,-1.065264456E-3,1.118527725E-2
9.735577300E-1,-1.118527725E-2,-3.728425596E-3,1.012001187E-2
9.754221530E-1,-1.118527725E-2,-4.793690052E-3,6.924218964E-3
9.776030760E-1,-1.384843793E-2,-1.118527725E-2,6.924218964E-3
9.793446530E-1,-1.278317347E-2,-1.225054078E-2,5.326322280E-3
9.817714610E-1,-1.065264456E-2,-1.065264456E-2,5.858954508E-3
9.834281530E-1,-7.456851192E-3,-5.858954508E-3,1.012001187E-2
9.862031530E-1,-5.326322280E-3,-2.130528912E-3,1.225054078E-2
9.877593840E-1,-3.195793368E-3,2.130528912E-3,1.065264456E-2
9.903595810E-1,0.000000000E0,2.130528912E-3,9.587380104E-3
9.915595760E-1,1.065264456E-3,-3.728425596E-3,9.587380104E-3
9.944286580E-1,1.597896684E-3,-3.728425596E-3,1.012001187E-2
9.956387680E-1,-1.065264456E-3,-7.456851192E-3,7.989482954E-3
9.985325040E-1,-1.597896684E-3,-1.171790902E-2,6.391586736E-3
9.997490380E-1,-5.326322280E-4,-1.012001187E-2,4.793690052E-3
1.002635543E0,-1.597896684E-3,-5.326322280E-3,8.522115648E-3
1.003848115E0,-1.597896684E-3,-1.065264456E-3,1.171790902E-2
1.006738466E0,1.597896684E-3,1.597896684E-3,9.587380104E-3
1.008225345E0,-3.728425596E-3,0.000000000E0,1.118527725E-2
1.010796774E0,-6.391586736E-3,-4.793690052E-3,1.065264456E-2
1.012002730E0,-6.924218964E-3,-5.858954508E-3,9.054748341E-3
1.014864966E0,-8.522115648E-3,-7.989482954E-3,8.522115648E-3
1.016086461E0,-1.012001187E-2,-1.065264456E-2,6.924218964E-3
1.018968543E0,-1.438106969E-2,-1.065264456E-2,6.391586736E-3
1.020299538E0,-1.384843793E-2,-7.456851192E-3,9.587380104E-3
1.022862768E0,-1.278317347E-2,-4.261057824E-3,1.225054078E-2
1.024301999E0,-1.118527725E-2,-2.663161140E-3,1.225054078E-2
1.027175197E0,-1.171790902E-2,-1.065264456E-3,1.118527725E-2
1.028570191E0,-1.171790902E-2,-4.261057824E-3,9.054748341E-3
1.030747961E0,-1.225054078E-2,-7.989482954E-3,1.065264456E-2
1.032387691E0,-1.065264456E-2,-7.989482954E-3,8.522115648E-3
1.034822961E0,-9.587380104E-3,-1.065264456E-2,7.456851192E-3
1.036509691E0,-9.587380104E-3,-1.278317347E-2,7.989482954E-3
1.039392350E0,-8.522115648E-3,-1.225054078E-2,7.989482954E-3
1.040617461E0,-7.456851192E-3,-4.793690052E-3,9.054748341E-3
1.043013730E0,-6.391586736E-3,-1.065264456E-3,1.065264456E-2
1.044765615E0,-6.924218964E-3,-2.663161140E-3,1.065264456E-2
1.047385615E0,-5.326322280E-3,-4.261057824E-3,7.989482954E-3
1.049034730E0,-5.858954508E-3,-6.391586736E-3,9.587380104E-3
1.051151153E0,-8.522115648E-3,-9.054748341E-3,7.456851192E-3
1.052916038E0,-9.587380104E-3,-9.587380104E-3,7.456851192E-3
1.055246422E0,-6.924218964E-3,-1.384843793E-2,7.989482954E-3
1.056954191E0,-8.522115648E-3,-1.118527725E-2,6.391586736E-3
1.059312461E0,-4.793690052E-3,-7.989482954E-3,7.456851192E-3
1.061039538E0,-3.195793368E-3,-6.391586736E-3,1.012001187E-2
1.063540422E0,-3.728425596E-3,-1.597896684E-3,1.225054078E-2
1.065177845E0,-6.391586736E-3,-2.130528912E-3,1.118527725E-2
1.067941345E0,-4.261057824E-3,-4.261057824E-3,9.587380104E-3
1.069688922E0,-5.858954508E-3,-6.391586736E-3,9.587380104E-3
1.072084081E0,-5.326322280E-3,-1.012001187E-2,9.587380104E-3
1.073266345E0,-9.054748341E-3,-9.587380104E-3,6.924218964E-3
1.076152581E0,-3.728425596E-3,-1.171790902E-2,8.522115648E-3
1.077420884E0,-5.858954508E-3,-5.858954508E-3,9.054748341E-3
1.080256081E0,-6.391586736E-3,-2.130528912E-3,1.278317347E-2
1.081468499E0,-7.456851192E-3,5.326322280E-4,1.171790902E-2
1.084358773E0,-8.522115648E-3,-2.663161140E-3,1.225054078E-2
1.085585076E0,-8.522115648E-3,-3.195793368E-3,1.065264456E-2
1.088461773E0,-1.171790902E-2,-5.858954508E-3,9.587380104E-3
1.089872730E0,-1.278317347E-2,-7.989482954E-3,7.989482954E-3
1.092499696E0,-1.065264456E-2,-9.587380104E-3,8.522115648E-3
1.093776884E0,-1.438106969E-2,-1.012001187E-2,7.989482954E-3
1.096568619E0,-1.438106969E-2,-7.989482954E-3,8.522115648E-3
1.097779461E0,-1.171790902E-2,-3.195793368E-3,1.118527725E-2
1.100672619E0,-9.587380104E-3,0.000000000E0,1.331580617E-2
1.101903191E0,-1.225054078E-2,-5.326322280E-4,1.331580617E-2
1.104565384E0,-1.118527725E-2,-5.326322280E-3,1.171790902E-2
1.106044576E0,-1.118527725E-2,-4.261057824E-3,9.054748341E-3
1.108879504E0,-1.065264456E-2,-8.522115648E-3,9.054748341E-3
1.110287576E0,-1.278317347E-2,-1.065264456E-2,1.118527725E-2
1.112430114E0,-1.438106969E-2,-9.587380104E-3,9.587380104E-3
1.114104653E0,-7.989482954E-3,-6.924218964E-3,1.012001187E-2
1.116499576E0,-7.456851192E-3,-4.793690052E-3,1.225054078E-2
1.118226268E0,-6.924218964E-3,-1.597896684E-3,1.384843793E-2
1.120603499E0,-6.924218964E-3,-4.793690052E-3,1.491370238E-2
1.122362845E0,-7.456851192E-3,-2.130528912E-3,1.384843793E-2
1.124836461E0,-6.924218964E-3,-5.326322280E-3,1.171790902E-2
1.126430961E0,-7.456851192E-3,-9.587380104E-3,1.012001187E-2
1.128951153E0,-9.054748341E-3,-1.012001187E-2,1.065264456E-2
1.130786730E0,-9.054748341E-3,-4.261057824E-3,9.054748341E-3
1.132867614E0,-8.522115648E-3,-6.924218964E-3,1.012001187E-2
1.134722230E0,-1.012001187E-2,-4.793690052E-3,1.225054078E-2
1.137039114E0,-1.171790902E-2,-7.456851192E-3,1.491370238E-2
1.138675576E0,-1.757686399E-2,-1.810949668E-2,1.384843793E-2
1.141070191E0,-2.343581803E-2,-3.142530099E-2,1.065264456E-2
1.142762268E0,-4.314320907E-2,-4.474110901E-2,7.456851192E-3
1.145236230E0,-5.912217870E-2,-5.113269389E-2,2.130528912E-3
1.146878691E0,-7.297061384E-2,-4.633900523E-2,4.793690052E-3
1.149621114E0,-8.202536404E-2,-2.982740477E-2,1.171790902E-2
1.151310191E0,-8.362326026E-2,-1.171790902E-2,1.917476021E-2
1.153787696E0,-7.510114461E-2,5.326322280E-3,2.343581803E-2
1.155221268E0,-6.764429063E-2,1.171790902E-2,1.917476021E-2
1.157856850E0,-6.498113275E-2,3.728425596E-3,1.544633508E-2
1.159142153E0,-6.285060197E-2,-8.522115648E-3,7.989482954E-3
1.161960658E0,-6.125270575E-2,-2.450108156E-2,1.597896684E-3
1.163509461E0,-5.379585549E-2,-3.728425503E-2,-3.728425596E-3
1.166064042E0,-4.314320907E-2,-4.314320907E-2,-5.858954508E-3
1.167306653E0,-3.195793182E-2,-3.621899337E-2,2.663161140E-3
1.170167235E0,-1.225054078E-2,-2.290318534E-2,8.522115648E-3
1.171578499E0,3.195793368E-3,-2.130528912E-3,1.597896591E-2
1.174205735E0,1.012001187E-2,1.012001187E-2,2.237055451E-2
1.175432691E0,1.384843793E-2,1.597896591E-2,2.183792181E-2
1.178273081E0,1.331580617E-2,1.384843793E-2,1.544633508E-2
1.179588384E0,8.522115648E-3,-1.597896684E-3,9.587380104E-3
1.182357004E0,4.793690052E-3,-1.651159860E-2,2.130528912E-3
1.183558884E0,-5.326322280E-4,-2.556634694E-2,-3.195793368E-3
1.186208961E0,-5.858954508E-3,-2.450108156E-2,1.065264456E-3
1.187691922E0,-1.065264456E-2,-1.384843793E-2,4.793690052E-3
1.190496422E0,-1.065264456E-2,-4.261057824E-3,1.225054078E-2
1.192022768E0,-1.757686399E-2,7.989482954E-3,1.970739290E-2
1.194112537E0,-2.450108156E-2,6.391586736E-3,2.183792181E-2
1.195840191E0,-3.249056637E-2,-1.597896684E-3,1.917476021E-2
1.198193307E0,-4.261057824E-2,-1.118527725E-2,1.544633508E-2
1.199893037E0,-5.166532472E-2,-2.396845073E-2,9.054748341E-3
1.202414191E0,-5.645901710E-2,-3.355583176E-2,4.793690052E-3
1.204003114E0,-5.219795927E-2,-2.876213938E-2,4.793690052E-3
1.206403345E0,-4.687163606E-2,-2.237055451E-2,6.391586736E-3
1.208095037E0,-3.888215125E-2,-1.012001187E-2,1.384843793E-2
1.210561422E0,-3.089267015E-2,5.326322280E-4,1.810949668E-2
1.212367884E0,-2.290318534E-2,5.326322280E-3,2.290318534E-2
1.214494191E0,-1.917476021E-2,1.597896684E-3,2.396845073E-2
1.216244999E0,-1.810949668E-2,-6.924218964E-3,2.024002373E-2
1.218780422E0,-1.225054078E-2,-2.130528912E-2,1.651159860E-2
1.220423191E0,-8.522115648E-3,-3.036003746E-2,1.331580617E-2
1.222764576E0,-6.391586736E-3,-2.982740477E-2,1.384843793E-2
1.224389807E0,-5.858954508E-3,-2.343581803E-2,1.597896591E-2
1.226890345E0,0.000000000E0,-1.278317347E-2,2.077265643E-2
1.228520768E0,5.326322280E-3,-2.663161140E-3,2.450108156E-2
1.231388465E0,7.456851192E-3,4.261057824E-3,2.716424316E-2
1.232828537E0,7.456851192E-3,3.728425596E-3,2.609897964E-2
1.235444619E0,1.065264456E-3,-4.261057824E-3,2.609897964E-2
1.236647961E0,-3.195793368E-3,-1.225054078E-2,2.077265643E-2
1.239512388E0,-1.065264456E-2,-2.130528912E-2,1.970739290E-2
1.240734037E0,-2.183792181E-2,-2.716424316E-2,1.864212751E-2
1.243615504E0,-2.396845073E-2,-2.769687586E-2,2.024002373E-2
1.244839999E0,-2.982740477E-2,-2.183792181E-2,2.077265643E-2
1.247718657E0,-3.089267015E-2,-1.384843793E-2,2.450108156E-2
1.248952307E0,-3.462109342E-2,-5.326322280E-3,2.929477207E-2
1.251822388E0,-3.408846259E-2,-1.065264456E-3,2.609897964E-2
1.253418345E0,-3.462109342E-2,-3.728425596E-3,2.396845073E-2
1.255881311E0,-3.195793182E-2,-1.065264456E-2,2.024002373E-2
1.257193884E0,-2.822950855E-2,-1.597896591E-2,1.544633508E-2
1.259949927E0,-2.556634694E-2,-2.024002373E-2,1.331580617E-2
1.261210691E0,-1.864212751E-2,-1.970739290E-2,1.438106969E-2
1.264053850E0,-1.118527725E-2,-1.118527725E-2,1.544633508E-2
1.265357884E0,-1.597896684E-3,-2.663161140E-3,1.544633508E-2
1.268013307E0,6.391586736E-3,2.663161140E-3,1.757686399E-2
1.269458422E0,1.384843793E-2,9.587380104E-3,1.810949668E-2
1.272260388E0,1.970739290E-2,8.522115648E-3,1.704423130E-2
1.273799653E0,2.130528912E-2,7.456851192E-3,1.065264456E-2
1.275803076E0,2.183792181E-2,3.728425596E-3,7.456851192E-3
1.277475961E0,2.503371425E-2,-1.065264456E-3,4.261057824E-3
1.279862345E0,2.556634694E-2,-3.728425596E-3,2.663161140E-3
1.281632807E0,2.663161233E-2,-3.195793368E-3,4.261057824E-3
1.284475696E0,2.663161233E-2,-5.326322280E-4,6.391586736E-3
1.285722961E0,2.450108156E-2,4.261057824E-3,9.587380104E-3
1.288090461E0,2.343581803E-2,1.065264456E-2,1.278317347E-2
1.289856845E0,1.970739290E-2,1.225054078E-2,1.331580617E-2
1.292343691E0,1.171790902E-2,1.065264456E-2,1.278317347E-2
1.294341768E0,1.597896684E-3,7.456851192E-3,1.384843793E-2
1.296277537E0,-2.130528912E-3,-2.663161140E-3,1.012001187E-2
1.298001307E0,-6.924218964E-3,-4.261057824E-3,5.326322280E-3
1.300428460E0,-1.012001187E-2,-5.326322280E-3,5.858954508E-3
1.302069307E0,-1.065264456E-2,-2.663161140E-3,9.054748341E-3
1.304479268E0,-7.456851192E-3,9.587380104E-3,9.054748341E-3
1.306162576E0,-2.130528912E-3,1.544633508E-2,1.012001187E-2
1.308619768E0,8.522115648E-3,1.970739290E-2,8.522115648E-3
1.310346960E0,1.171790902E-2,1.864212751E-2,5.858954508E-3
1.312968037E0,1.331580617E-2,1.012001187E-2,5.326322280E-4
1.314596460E0,1.704423130E-2,3.728425596E-3,-2.663161140E-3
1.317201272E0,1.597896591E-2,-3.728425596E-3,-3.728425596E-3
1.318554499E0,1.864212751E-2,-4.261057824E-3,-5.326322280E-3
1.321271196E0,2.450108156E-2,4.261057824E-3,-5.326322280E-4
1.322624884E0,2.716424316E-2,8.522115648E-3,3.195793368E-3
1.325376196E0,2.769687586E-2,2.183792181E-2,5.326322280E-3
1.326601576E0,2.929477207E-2,2.024002373E-2,6.391586736E-3
1.329480542E0,3.089267015E-2,1.544633508E-2,6.391586736E-3
1.330691653E0,2.343581803E-2,5.326322280E-3,4.793690052E-3
1.333584772E0,1.384843793E-2,-3.195793368E-3,4.261057824E-3
1.335019307E0,7.989482954E-3,-1.065264456E-2,2.130528912E-3
1.337623926E0,0.000000000E0,-1.331580617E-2,2.130528912E-3
1.338843768E0,-4.261057824E-3,-1.544633508E-2,5.326322280E-3
1.341693619E0,-6.924218964E-3,-9.054748341E-3,9.587380104E-3
1.343133268E0,-1.118527725E-2,0.000000000E0,9.054748341E-3
1.345797619E0,-1.171790902E-2,5.326322280E-3,1.118527725E-2
1.347056845E0,-1.917476021E-2,1.065264456E-2,9.054748341E-3
1.349672230E0,-2.396845073E-2,9.054748341E-3,6.391586736E-3
1.351202576E0,-2.343581803E-2,4.793690052E-3,-1.065264456E-3
1.353938695E0,-1.810949668E-2,-2.130528912E-3,-3.195793368E-3
1.355468499E0,-1.384843793E-2,-7.456851192E-3,-4.793690052E-3
1.357528614E0,-1.118527725E-2,-3.728425596E-3,-2.130528912E-3
1.359219768E0,0.000000000E0,-1.597896684E-3,1.065264456E-3
1.361578460E0,1.012001187E-2,6.391586736E-3,4.261057824E-3
1.363429114E0,1.544633508E-2,1.012001187E-2,6.391586736E-3
1.365690653E0,2.343581803E-2,1.225054078E-2,9.054748341E-3
1.367444845E0,2.982740477E-2,9.587380104E-3,9.587380104E-3
1.369791999E0,3.195793182E-2,-1.597896684E-3,3.728425596E-3
1.371482037E0,2.822950855E-2,-2.663161140E-3,1.597896684E-3
1.373969845E0,1.917476021E-2,-7.989482954E-3,-5.326322280E-4
1.375833653E0,2.716424316E-2,-1.171790902E-2,-1.597896684E-3
1.377982499E0,1.331580617E-2,1.597896684E-3,2.130528912E-3
1.379597153E0,2.077265643E-2,-9.587380104E-3,6.924218964E-3
1.382060653E0,3.728425596E-3,1.491370238E-2,7.989482954E-3
1.383801153E0,5.326322280E-4,7.989482954E-3,1.171790902E-2
1.386479076E0,-5.326322280E-4,2.130528912E-3,1.278317347E-2
1.388051230E0,-2.556634694E-2,1.438106969E-2,8.522115648E-3
1.390318191E0,-2.237055451E-2,-1.757686399E-2,7.456851192E-3
1.392309730E0,-3.195793182E-2,-3.728425596E-3,-1.065264456E-3
1.394632845E0,-3.568635881E-2,-1.491370238E-2,5.326322280E-4
1.396200076E0,-2.716424316E-2,-1.757686399E-2,1.597896684E-3
1.398850234E0,-3.834952042E-2,1.012001187E-2,1.065264456E-3
1.400085884E0,-1.491370238E-2,-4.793690052E-3,7.456851192E-3
1.402919080E0,-2.290318534E-2,1.864212751E-2,5.858954508E-3
1.404182653E0,-8.522115648E-3,6.391586736E-3,1.012001187E-2
1.407023080E0,-5.326322280E-3,7.456851192E-3,9.587380104E-3
1.408449960E0,-3.195793368E-3,6.924218964E-3,4.793690052E-3
1.411085234E0,4.793690052E-3,-1.012001187E-2,3.195793368E-3
1.412251307E0,-1.597896684E-3,-5.326322280E-4,1.065264456E-3
1.415155003E0,6.924218964E-3,-9.587380104E-3,2.663161140E-3
1.416571845E0,7.989482954E-3,2.130528912E-3,5.326322280E-3
1.419193772E0,1.704423130E-2,7.989482954E-3,7.456851192E-3
1.420385807E0,1.757686399E-2,9.587380104E-3,9.587380104E-3
1.423262849E0,1.597896591E-2,1.704423130E-2,1.225054078E-2
1.424573845E0,1.384843793E-2,9.587380104E-3,1.278317347E-2
1.427366734E0,7.456851192E-3,1.012001187E-2,1.065264456E-2
1.428572153E0,1.012001187E-2,-1.118527725E-2,7.456851192E-3
1.431251845E0,-1.384843793E-2,2.663161140E-3,4.793690052E-3
1.432679460E0,1.597896684E-3,-2.343581803E-2,7.456851192E-3
1.435573464E0,-1.757686399E-2,8.522115648E-3,4.793690052E-3
1.437053153E0,-9.054748341E-3,-5.858954508E-3,1.171790902E-2
1.439115499E0,-7.456851192E-3,1.118527725E-2,1.065264456E-2
1.440796460E0,-1.491370238E-2,1.438106969E-2,1.012001187E-2
1.443170153E0,-5.326322280E-4,-3.728425596E-3,1.012001187E-2
1.444893191E0,-1.651159860E-2,1.544633508E-2,3.728425596E-3
1.447264037E0,-5.858954508E-3,-1.118527725E-2,3.728425596E-3
1.449008307E0,-1.278317347E-2,-5.326322280E-4,-3.195793368E-3
1.451401730E0,-6.391586736E-3,-4.261057824E-3,-4.793690052E-3
1.453125499E0,1.065264456E-3,-4.793690052E-3,-4.261057824E-3
1.455607614E0,2.663161140E-3,9.587380104E-3,-3.728425596E-3
1.457375037E0,1.384843793E-2,3.195793368E-3,-3.195793368E-3
1.459520230E0,1.118527725E-2,1.917476021E-2,-3.728425596E-3
1.461210653E0,1.810949668E-2,1.225054078E-2,-3.195793368E-3
1.463567307E0,1.438106969E-2,1.331580617E-2,-4.261057824E-3
1.465435691E0,1.704423130E-2,6.391586736E-3,-6.391586736E-3
1.467852191E0,1.438106969E-2,-2.130528912E-3,-1.065264456E-2
1.469629576E0,5.326322280E-3,-4.793690052E-3,-1.118527725E-2
1.471930576E0,9.054748341E-3,-3.195793368E-3,-1.118527725E-2
1.473522383E0,1.065264456E-3,6.924218964E-3,-1.065264456E-2
1.476258883E0,5.326322280E-3,6.391586736E-3,-9.587380104E-3
1.477819230E0,-5.326322280E-4,1.331580617E-2,-8.522115648E-3
1.480477195E0,0.000000000E0,1.171790902E-2,-4.793690052E-3
1.481648307E0,-1.597896684E-3,1.118527725E-2,-5.858954508E-3
1.484544118E0,-5.858954508E-3,7.989482954E-3,-6.924218964E-3
1.485871730E0,-5.326322280E-3,-2.663161140E-3,-7.456851192E-3
1.488646887E0,-7.989482954E-3,-2.130528912E-3,-9.054748341E-3
1.489926576E0,-3.195793368E-3,-4.261057824E-3,-1.118527725E-2
1.492748849E0,3.195793368E-3,3.195793368E-3,-9.587380104E-3
1.494060153E0,9.587380104E-3,5.326322280E-3,-8.522115648E-3
1.496851233E0,9.587380104E-3,1.118527725E-2,-6.391586736E-3
1.498412999E0,1.597896591E-2,1.065264456E-2,-7.989482954E-3
1.500914310E0,1.704423130E-2,1.171790902E-2,-9.054748341E-3
1.502197883E0,2.024002373E-2,7.989482954E-3,-9.054748341E-3
1.504976153E0,2.183792181E-2,2.130528912E-3,-1.171790902E-2
1.506193307E0,1.917476021E-2,-2.663161140E-3,-1.225054078E-2
1.509084503E0,1.864212751E-2,-4.793690052E-3,-1.384843793E-2
1.510289460E0,1.757686399E-2,-2.663161140E-3,-1.491370238E-2
1.512933499E0,1.810949668E-2,2.663161140E-3,-1.171790902E-2
1.514399153E0,1.651159860E-2,6.391586736E-3,-1.012001187E-2
1.517289849E0,1.384843793E-2,7.989482954E-3,-7.989482954E-3
1.518665653E0,7.456851192E-3,9.054748341E-3,-9.054748341E-3
1.520798306E0,5.326322280E-3,5.858954508E-3,-9.587380104E-3
1.522503422E0,5.326322280E-4,-5.326322280E-4,-1.012001187E-2
1.524872076E0,-1.065264456E-3,-4.261057824E-3,-1.278317347E-2
1.526591306E0,-6.924218964E-3,-7.989482954E-3,-1.278317347E-2
1.529498733E0,-4.261057824E-3,-6.924218964E-3,-1.012001187E-2
1.530764306E0,-3.728425596E-3,-6.924218964E-3,-8.522115648E-3
1.533449691E0,-3.728425596E-3,-1.597896684E-3,-7.456851192E-3
1.534830268E0,4.261057824E-3,2.663161140E-3,-6.924218964E-3
1.537450306E0,2.663161140E-3,5.858954508E-3,-7.456851192E-3
1.539121345E0,4.793690052E-3,2.130528912E-3,-6.924218964E-3
1.541261306E0,6.391586736E-3,4.261057824E-3,-9.054748341E-3
1.542948960E0,1.171790902E-2,-2.130528912E-3,-1.118527725E-2
1.545342076E0,1.278317347E-2,-5.858954508E-3,-1.544633508E-2
1.547026922E0,1.278317347E-2,-3.195793368E-3,-1.491370238E-2
1.549440614E0,1.970739290E-2,1.597896684E-3,-1.171790902E-2
1.551158153E0,2.077265643E-2,3.728425596E-3,-7.456851192E-3
1.553617999E0,2.290318534E-2,1.012001187E-2,-7.989482954E-3
1.555261576E0,2.290318534E-2,6.924218964E-3,-6.391586736E-3
1.557997345E0,2.024002373E-2,7.456851192E-3,-7.989482954E-3
1.559625614E0,1.651159860E-2,6.924218964E-3,-8.522115648E-3
1.562206960E0,1.278317347E-2,2.130528912E-3,-1.118527725E-2
1.563395576E0,1.012001187E-2,5.326322280E-4,-1.384843793E-2
1.566274810E0,6.391586736E-3,-5.326322280E-4,-1.278317347E-2
1.567479076E0,5.858954508E-3,2.130528912E-3,-1.065264456E-2
1.570376502E0,2.130528912E-3,7.989482954E-3,-1.012001187E-2
1.571615653E0,2.663161140E-3,9.587380104E-3,-6.924218964E-3
1.574478771E0,2.130528912E-3,9.587380104E-3,-9.054748341E-3
1.575703499E0,1.597896684E-3,1.012001187E-2,-7.989482954E-3
1.578581771E0,-3.728425596E-3,6.924218964E-3,-9.054748341E-3
1.580154345E0,-4.261057824E-3,4.261057824E-3,-1.012001187E-2
1.582619156E0,-2.663161140E-3,0.000000000E0,-1.225054078E-2
1.583806460E0,-4.261057824E-3,-2.663161140E-3,-1.438106969E-2
1.586687002E0,-5.326322280E-4,1.597896684E-3,-1.278317347E-2
1.587926114E0,2.663161140E-3,5.326322280E-3,-1.225054078E-2
1.590790156E0,9.054748341E-3,6.391586736E-3,-1.065264456E-2
1.592151960E0,1.012001187E-2,1.225054078E-2,-6.924218964E-3
1.594723383E0,1.331580617E-2,1.278317347E-2,-9.587380104E-3
1.596136499E0,1.864212751E-2,1.225054078E-2,-7.456851192E-3
1.598995848E0,2.024002373E-2,7.989482954E-3,-9.054748341E-3
1.600669960E0,2.130528912E-2,5.858954508E-3,-1.065264456E-2
1.602633845E0,1.810949668E-2,4.261057824E-3,-1.544633508E-2
1.604305037E0,1.810949668E-2,2.663161140E-3,-1.331580617E-2
1.606660499E0,1.810949668E-2,7.989482954E-3,-1.118527725E-2
1.608501999E0,1.651159860E-2,9.054748341E-3,-7.989482954E-3
1.610757460E0,1.597896591E-2,1.012001187E-2,-7.989482954E-3
1.612581499E0,1.704423130E-2,1.065264456E-2,-9.054748341E-3
1.614844922E0,1.225054078E-2,7.989482954E-3,-7.989482954E-3
1.616714922E0,9.054748341E-3,7.456851192E-3,-9.587380104E-3
1.619033076E0,6.924218964E-3,6.924218964E-3,-1.171790902E-2
1.620963076E0,4.793690052E-3,2.130528912E-3,-1.225054078E-2
1.623009729E0,4.793690052E-3,5.326322280E-4,-1.171790902E-2
1.624689999E0,1.597896684E-3,2.130528912E-3,-1.278317347E-2
1.627022806E0,4.261057824E-3,5.858954508E-3,-1.012001187E-2
1.628963191E0,7.456851192E-3,9.054748341E-3,-9.054748341E-3
1.631200383E0,7.989482954E-3,9.054748341E-3,-8.522115648E-3
1.632826729E0,1.065264456E-2,9.587380104E-3,-1.065264456E-2
1.635275037E0,9.587380104E-3,9.587380104E-3,-1.012001187E-2
1.636897845E0,1.544633508E-2,4.261057824E-3,-1.118527725E-2
1.639749117E0,1.225054078E-2,1.597896684E-3,-1.331580617E-2
1.641162076E0,1.278317347E-2,2.663161140E-3,-1.491370238E-2
1.643794156E0,1.544633508E-2,2.663161140E-3,-1.384843793E-2
1.645060537E0,1.757686399E-2,5.326322280E-3,-1.384843793E-2
1.647861156E0,2.077265643E-2,7.456851192E-3,-1.225054078E-2
1.649101883E0,2.024002373E-2,1.171790902E-2,-1.171790902E-2
1.651963694E0,1.917476021E-2,1.118527725E-2,-1.171790902E-2
1.653174999E0,1.810949668E-2,9.587380104E-3,-1.065264456E-2
1.656065848E0,1.757686399E-2,7.989482954E-3,-1.065264456E-2
1.657379922E0,1.597896591E-2,2.663161140E-3,-1.278317347E-2
1.660168079E0,1.331580617E-2,1.065264456E-3,-1.491370238E-2
1.661570153E0,1.438106969E-2,-1.065264456E-3,-1.651159860E-2
1.664205579E0,9.587380104E-3,3.195793368E-3,-1.438106969E-2
1.665426653E0,6.924218964E-3,9.587380104E-3,-1.225054078E-2
1.668273079E0,7.989482954E-3,1.171790902E-2,-1.065264456E-2
1.669610191E0,4.793690052E-3,1.225054078E-2,-1.065264456E-2
1.672375733E0,6.924218964E-3,7.989482954E-3,-1.278317347E-2
1.673883383E0,4.261057824E-3,6.391586736E-3,-1.065264456E-2
1.676410422E0,4.261057824E-3,2.130528912E-3,-1.278317347E-2
1.677818653E0,3.728425596E-3,2.130528912E-3,-1.491370238E-2
1.680581079E0,6.391586736E-3,3.728425596E-3,-1.544633508E-2
1.682054037E0,6.924218964E-3,5.326322280E-3,-1.384843793E-2
1.684126691E0,6.391586736E-3,7.989482954E-3,-1.225054078E-2
1.685969537E0,1.225054078E-2,1.278317347E-2,-1.118527725E-2
1.688225422E0,1.171790902E-2,1.384843793E-2,-1.491370238E-2
1.689969153E0,1.331580617E-2,1.171790902E-2,-1.171790902E-2
1.692322653E0,1.438106969E-2,8.522115648E-3,-1.384843793E-2
1.694100153E0,1.278317347E-2,6.391586736E-3,-1.651159860E-2
1.696498422E0,1.065264456E-2,4.261057824E-3,-1.491370238E-2
1.698149806E0,1.171790902E-2,2.130528912E-3,-1.438106969E-2
1.700742806E0,1.065264456E-2,4.261057824E-3,-1.331580617E-2
1.702484691E0,1.171790902E-2,8.522115648E-3,-1.118527725E-2
1.704624037E0,1.438106969E-2,8.522115648E-3,-1.012001187E-2
1.706361537E0,1.065264456E-2,1.118527725E-2,-1.118527725E-2
1.708745960E0,1.225054078E-2,1.171790902E-2,-1.278317347E-2
1.710356191E0,1.171790902E-2,7.989482954E-3,-1.065264456E-2
1.712736537E0,1.171790902E-2,6.924218964E-3,-1.225054078E-2
1.714444037E0,1.012001187E-2,6.924218964E-3,-1.225054078E-2
1.717004999E0,1.065264456E-2,3.728425596E-3,-1.331580617E-2
1.718557460E0,1.012001187E-2,4.261057824E-3,-1.491370238E-2
1.721403537E0,1.171790902E-2,7.456851192E-3,-1.118527725E-2
1.722851806E0,1.171790902E-2,1.012001187E-2,-1.225054078E-2
1.725486848E0,1.331580617E-2,1.012001187E-2,-9.587380104E-3
1.726687422E0,1.491370238E-2,1.118527725E-2,-1.118527725E-2
1.729554425E0,1.704423130E-2,1.012001187E-2,-1.331580617E-2
1.730770191E0,1.384843793E-2,9.054748341E-3,-1.438106969E-2
1.733657194E0,1.438106969E-2,6.924218964E-3,-1.597896591E-2
1.734881576E0,1.544633508E-2,7.989482954E-3,-1.757686399E-2
1.737759886E0,1.384843793E-2,8.522115648E-3,-1.704423130E-2
1.739003037E0,1.438106969E-2,7.989482954E-3,-1.544633508E-2
1.741862386E0,1.438106969E-2,1.118527725E-2,-1.331580617E-2
1.743408383E0,1.331580617E-2,1.171790902E-2,-1.278317347E-2
1.745919925E0,1.331580617E-2,1.331580617E-2,-1.491370238E-2
1.747100806E0,1.118527725E-2,1.065264456E-2,-1.597896591E-2
1.749986963E0,1.118527725E-2,8.522115648E-3,-1.544633508E-2
1.751344422E0,7.989482954E-3,6.391586736E-3,-1.704423130E-2
1.754089579E0,9.587380104E-3,7.456851192E-3,-1.651159860E-2
1.755306729E0,1.118527725E-2,9.587380104E-3,-1.864212751E-2
1.757979960E0,1.171790902E-2,7.456851192E-3,-1.864212751E-2
1.759444652E0,1.065264456E-2,1.065264456E-2,-1.651159860E-2
1.762294886E0,1.597896591E-2,1.438106969E-2,-1.597896591E-2
1.763688229E0,1.757686399E-2,1.438106969E-2,-1.544633508E-2
1.765837422E0,1.810949668E-2,1.384843793E-2,-1.544633508E-2
1.767533306E0,1.757686399E-2,1.065264456E-2,-1.704423130E-2
1.769944114E0,1.704423130E-2,1.012001187E-2,-1.810949668E-2
1.771677152E0,1.917476021E-2,6.924218964E-3,-1.917476021E-2
1.774509040E0,1.651159860E-2,6.391586736E-3,-1.864212751E-2
1.775809076E0,1.438106969E-2,7.989482954E-3,-1.757686399E-2
1.778155883E0,1.331580617E-2,8.522115648E-3,-1.651159860E-2
1.779859460E0,1.651159860E-2,1.331580617E-2,-1.810949668E-2
1.782356499E0,1.491370238E-2,1.065264456E-2,-1.491370238E-2
1.784141922E0,1.278317347E-2,1.171790902E-2,-1.757686399E-2
1.786404229E0,1.118527725E-2,1.012001187E-2,-1.704423130E-2
1.788163845E0,1.171790902E-2,6.391586736E-3,-1.597896591E-2
1.790430460E0,1.012001187E-2,4.793690052E-3,-1.757686399E-2
1.792182460E0,1.012001187E-2,5.326322280E-3,-1.810949668E-2
1.794481229E0,8.522115648E-3,4.261057824E-3,-1.810949668E-2
1.796227960E0,1.171790902E-2,8.522115648E-3,-1.704423130E-2
1.798794076E0,1.065264456E-2,7.989482954E-3,-1.438106969E-2
1.800420845E0,1.597896591E-2,9.587380104E-3,-1.438106969E-2
1.803116268E0,1.704423130E-2,1.118527725E-2,-1.544633508E-2
1.804773960E0,1.544633508E-2,5.858954508E-3,-1.544633508E-2
1.807219924E0,1.810949668E-2,5.326322280E-3,-1.651159860E-2
1.808424999E0,1.597896591E-2,5.326322280E-3,-1.810949668E-2
1.811287117E0,1.757686399E-2,5.326322280E-3,-1.757686399E-2
1.812611345E0,2.130528912E-2,5.326322280E-3,-1.704423130E-2
1.815353924E0,1.704423130E-2,7.456851192E-3,-1.651159860E-2
1.816567999E0,2.077265643E-2,9.587380104E-3,-1.544633508E-2
1.819422463E0,2.343581803E-2,9.587380104E-3,-1.597896591E-2
1.820694845E0,1.970739290E-2,8.522115648E-3,-1.438106969E-2
1.823525540E0,1.651159860E-2,7.989482954E-3,-1.544633508E-2
1.824906306E0,1.864212751E-2,6.924218964E-3,-1.544633508E-2
1.827562655E0,1.331580617E-2,5.326322280E-3,-1.491370238E-2
1.828743537E0,1.278317347E-2,3.728425596E-3,-1.597896591E-2
1.831630232E0,1.012001187E-2,1.065264456E-3,-1.491370238E-2
1.832857922E0,9.587380104E-3,3.728425596E-3,-1.597896591E-2
1.835733271E0,7.456851192E-3,6.924218964E-3,-1.491370238E-2
1.836984306E0,2.663161140E-3,0.000000000E0,-1.651159860E-2
1.839634422E0,-1.906823367E-1,1.757686399E-2,-3.036003746E-2
1.841188845E0,-3.009372056E-1,-4.793690145E-2,-3.994741663E-2
1.843915268E0,-2.087918371E-1,-6.391586736E-3,-1.235706806E-1
1.845392614E0,-1.709749401E-1,-9.374327213E-2,-1.065264456E-2
1.847531806E0,-1.885518134E-1,-1.171790902E-2,6.924218684E-2
1.849185691E0,-1.731054783E-1,8.096009493E-2,6.018744037E-2
1.851580383E0,-3.089267015E-2,8.788431436E-2,3.781688958E-2
1.853476922E0,1.917476021E-2,-3.728425596E-3,2.130528912E-2
1.855710422E0,4.314320907E-2,-4.154531285E-2,-2.982740477E-2
1.857395152E0,9.054747969E-2,-6.072007492E-2,-8.202536404E-2
1.859806229E0,1.422128081E-1,-6.657902896E-2,-9.374327213E-2
1.861503460E0,1.635181010E-1,-1.757686399E-2,-6.018744037E-2
1.864039999E0,1.715075821E-1,6.231797114E-2,-1.171790902E-2
1.866309306E0,1.997370869E-1,1.246359423E-1,2.077265643E-2
1.867972691E0,2.503371537E-1,1.086569726E-1,3.408846259E-2
1.869700691E0,2.700445354E-1,6.072007492E-2,3.142530099E-2
1.872022306E0,2.364887148E-1,1.384843793E-2,2.450108156E-2
1.873736652E0,1.539307088E-1,-3.089267015E-2,1.970739290E-2
1.876195075E0,5.965480953E-2,-3.621899337E-2,-5.326322280E-4
1.877831191E0,-1.225054078E-2,-2.929477207E-2,-3.089267015E-2
1.880330383E0,-4.953479767E-2,-3.568635881E-2,-4.580637068E-2
1.881938960E0,-4.900216311E-2,-3.355583176E-2,-5.060006306E-2
1.884637806E0,-4.900216311E-2,4.261057824E-3,-3.408846259E-2
1.886497499E0,-7.297061384E-2,7.030745596E-2,-7.989482954E-3
1.888842001E0,-1.033306494E-1,1.017327532E-1,2.130528912E-2
1.890053037E0,-1.054611802E-1,7.563377917E-2,3.142530099E-2
1.892910886E0,-8.202536404E-2,1.331580617E-2,1.331580617E-2
1.894122499E0,-7.723167539E-2,-4.900216311E-2,-1.704423130E-2
1.897014424E0,-9.427590668E-2,-9.054747969E-2,-3.568635881E-2
1.898349229E0,-9.960222989E-2,-8.415589482E-2,-4.793690145E-2
1.901117924E0,-6.072007492E-2,-4.048004746E-2,-5.006742850E-2
1.902371845E0,-1.065264456E-2,1.225054078E-2,-3.408846259E-2
1.905221116E0,6.604639441E-2,9.374327213E-2,5.326322280E-4
1.906822922E0,1.230380461E-1,1.022653878E-1,1.278317347E-2
1.909257347E0,1.709749401E-1,7.190535218E-2,5.858954508E-3
1.910560537E0,1.906823367E-1,3.089267015E-2,-3.728425596E-3
1.913325847E0,1.683117896E-1,-1.065264456E-2,-1.278317347E-2
1.914560268E0,1.384843737E-1,-3.195793182E-2,-2.396845073E-2
1.917429116E0,1.246359423E-1,-4.420847446E-2,-3.781688958E-2
1.918652806E0,1.262338310E-1,-3.515372798E-2,-3.888215125E-2
1.921381806E0,1.123853996E-1,1.597896684E-3,-2.183792181E-2
1.922752768E0,8.042746782E-2,5.113269389E-2,2.663161140E-3
1.925637039E0,4.793690145E-2,8.468852192E-2,1.757686399E-2
1.927250075E0,2.396845073E-2,7.563377917E-2,1.704423130E-2
1.929230729E0,-3.728425596E-3,3.515372798E-2,4.793690052E-3
1.930901037E0,-4.367584363E-2,-1.225054078E-2,-9.587380104E-3
1.933336306E0,-8.894958347E-2,-5.379585549E-2,-2.237055451E-2
1.935042152E0,-1.241033077E-1,-7.137271762E-2,-3.302319720E-2
1.937388806E0,-1.358212233E-1,-6.178534031E-2,-3.408846259E-2
1.939115498E0,-1.304948926E-1,-3.195793182E-2,-2.343581803E-2
1.941486922E0,-1.145159304E-1,1.384843793E-2,-1.171790902E-2
1.943205537E0,-8.788431436E-2,5.113269389E-2,-2.663161140E-3
1.945678960E0,-5.539375171E-2,6.391586363E-2,2.663161140E-3
1.947490422E0,-2.982740477E-2,4.527373984E-2,3.728425596E-3
1.949665883E0,-3.728425596E-3,1.384843793E-2,-2.130528912E-3
1.951316768E0,1.704423130E-2,-1.970739290E-2,-1.491370238E-2
1.953714652E0,3.888215125E-2,-4.527373984E-2,-2.822950855E-2
1.955475614E0,6.072007492E-2,-4.687163606E-2,-3.142530099E-2
1.957817806E0,9.001484513E-2,-2.556634694E-2,-2.769687586E-2
1.959550998E0,1.166464612E-1,1.544633508E-2,-1.225054078E-2
1.962084345E0,1.310275346E-1,5.273059011E-2,-1.065264456E-3
1.963659922E0,1.400822699E-1,7.510114461E-2,7.456851192E-3
1.966362229E0,1.304948926E-1,5.699164793E-2,1.597896684E-3
1.967921037E0,1.027980223E-1,2.556634694E-2,-6.391586736E-3
1.970551155E0,6.125270575E-2,-7.456851192E-3,-1.384843793E-2
1.971730575E0,1.970739290E-2,-3.568635881E-2,-1.864212751E-2
1.974619655E0,-9.054748341E-3,-4.740426689E-2,-2.183792181E-2
1.975855537E0,-2.822950855E-2,-4.207794741E-2,-1.864212751E-2
1.978722885E0,-4.261057824E-2,-6.391586736E-3,-5.858954508E-3
1.980001614E0,-6.072007492E-2,2.982740477E-2,6.391586736E-3
1.982825847E0,-7.723167539E-2,5.592638254E-2,1.544633508E-2
1.984083268E0,-8.415589482E-2,4.953479767E-2,1.278317347E-2
1.986928770E0,-8.575379103E-2,2.077265643E-2,3.195793368E-3
1.988497306E0,-8.735168725E-2,-1.651159860E-2,-1.065264456E-2
1.990987885E0,-8.415589482E-2,-4.207794741E-2,-2.237055451E-2
1.992158345E0,-7.829693705E-2,-4.900216311E-2,-2.716424316E-2
1.995055924E0,-5.752427876E-2,-3.621899337E-2,-2.716424316E-2
1.996703460E0,-2.982740477E-2,-3.728425596E-3,-1.651159860E-2
1.999159731E0,6.391586736E-3,2.876213938E-2,-4.261057824E-3
2.000369460E0,3.888215125E-2,5.006742850E-2,3.728425596E-3
2.003153614E0,6.657902896E-2,5.432848632E-2,2.130528912E-3
2.004496114E0,7.989483327E-2,4.474110901E-2,-3.728425596E-3
2.007358960E0,7.882957160E-2,2.663161233E-2,-9.587380104E-3
2.008764691E0,7.243798673E-2,4.793690052E-3,-1.597896591E-2
2.010887883E0,6.977482140E-2,-1.544633508E-2,-2.450108156E-2
2.012584960E0,7.669904083E-2,-3.036003746E-2,-2.769687586E-2
2.014983998E0,8.042746782E-2,-1.970739290E-2,-2.237055451E-2
2.016683345E0,7.456851006E-2,1.278317347E-2,-7.456851192E-3
2.019579962E0,6.285060197E-2,4.953479767E-2,8.522115648E-3
2.020840537E0,3.728425503E-2,6.551376730E-2,1.384843793E-2
2.023197191E0,2.024002373E-2,3.941478580E-2,6.924218964E-3
2.024911691E0,-4.261057824E-3,4.261057824E-3,-4.261057824E-3
2.027431691E0,-2.982740477E-2,-2.663161233E-2,-1.810949668E-2
2.029197883E0,-5.219795927E-2,-3.941478580E-2,-2.396845073E-2
2.031361037E0,-6.817692518E-2,-3.302319720E-2,-2.290318534E-2
2.033022729E0,-7.616640627E-2,-1.704423130E-2,-1.438106969E-2
2.035403806E0,-6.444849819E-2,1.065264456E-2,-6.391586736E-3
2.037148229E0,-4.580637068E-2,2.822950855E-2,0.000000000E0
2.039639498E0,-3.142530099E-2,3.941478580E-2,6.391586736E-3
2.041274306E0,-2.663161233E-2,3.408846259E-2,-5.326322280E-4
2.043696537E0,-2.663161233E-2,2.396845073E-2,-9.054748341E-3
2.045380614E0,-2.077265643E-2,4.261057824E-3,-1.810949668E-2
2.048069345E0,-1.438106969E-2,-2.130528912E-2,-2.769687586E-2
2.049705345E0,1.597896684E-3,-3.195793182E-2,-3.195793182E-2
2.052295231E0,2.237055451E-2,-2.822950855E-2,-3.089267015E-2
2.053480268E0,4.580637068E-2,-5.858954508E-3,-2.237055451E-2
2.056362077E0,5.965480953E-2,2.769687586E-2,-2.663161140E-3
2.057599729E0,6.178534031E-2,5.379585549E-2,9.054748341E-3
2.060465193E0,7.190535218E-2,5.752427876E-2,7.989482954E-3
2.061679883E0,7.243798673E-2,2.822950855E-2,0.000000000E0
2.064568693E0,6.817692518E-2,-2.130528912E-3,-1.331580617E-2
2.065805037E0,4.900216311E-2,-2.290318534E-2,-1.810949668E-2
2.068672154E0,3.142530099E-2,-2.769687586E-2,-2.290318534E-2
2.070116652E0,1.651159860E-2,-2.237055451E-2,-2.077265643E-2
2.072723385E0,1.225054078E-2,-1.171790902E-2,-1.491370238E-2
2.073899345E0,9.054748341E-3,6.391586736E-3,-4.261057824E-3
2.076792462E0,1.012001187E-2,2.663161233E-2,1.597896684E-3
2.078153998E0,6.391586736E-3,3.302319720E-2,3.195793368E-3
2.080896616E0,-2.024002373E-2,2.237055451E-2,-5.326322280E-4
2.082112883E0,-3.408846259E-2,5.858954508E-3,-1.012001187E-2
2.084825152E0,-4.207794741E-2,-1.864212751E-2,-2.396845073E-2
2.086212960E0,-4.261057824E-2,-3.568635881E-2,-2.982740477E-2
2.089104116E0,-3.781688958E-2,-3.834952042E-2,-3.089267015E-2
2.090558191E0,-3.089267015E-2,-1.970739290E-2,-2.343581803E-2
2.092680998E0,-1.491370238E-2,9.054748341E-3,-1.491370238E-2
2.094408537E0,-1.597896684E-3,3.675162420E-2,-4.261057824E-3
2.096742960E0,1.012001187E-2,4.527373984E-2,-5.326322280E-4
2.098431268E0,2.556634694E-2,3.302319720E-2,-5.326322280E-3
2.100814114E0,3.408846259E-2,1.012001187E-2,-1.651159860E-2
2.102525498E0,3.515372798E-2,-9.054748341E-3,-2.290318534E-2
2.104903306E0,2.876213938E-2,-1.917476021E-2,-2.769687586E-2
2.106698960E0,2.450108156E-2,-1.864212751E-2,-2.876213938E-2
2.109146883E0,3.462109342E-2,-7.989482954E-3,-2.503371425E-2
2.111268460E0,4.367584363E-2,6.924218964E-3,-1.757686399E-2
2.113111845E0,4.793690145E-2,2.503371425E-2,-7.456851192E-3
2.114768383E0,4.900216311E-2,3.728425503E-2,1.597896684E-3
2.117163037E0,4.314320907E-2,3.834952042E-2,3.195793368E-3
2.118875383E0,3.408846259E-2,2.609897964E-2,-1.065264456E-3
2.121351306E0,1.544633508E-2,1.597896684E-3,-6.924218964E-3
2.122972421E0,5.326322280E-4,-1.544633508E-2,-1.651159860E-2
2.125466037E0,-5.858954508E-3,-2.716424316E-2,-2.343581803E-2
2.127127652E0,-1.012001187E-2,-2.503371425E-2,-2.290318534E-2
2.129850845E0,-1.438106969E-2,-6.924218964E-3,-1.384843793E-2
2.131381998E0,-1.970739290E-2,1.597896591E-2,-5.858954508E-3
2.134020346E0,-1.278317347E-2,3.568635881E-2,-1.065264456E-3
2.135210998E0,-1.012001187E-2,3.675162420E-2,1.065264456E-3
2.138089346E0,-9.587380104E-3,1.544633508E-2,-7.989482954E-3
2.139299537E0,-1.225054078E-2,-4.261057824E-3,-1.331580617E-2
2.142193385E0,-1.278317347E-2,-1.864212751E-2,-2.130528912E-2
2.143404268E0,-1.544633508E-2,-2.290318534E-2,-2.183792181E-2
2.146297231E0,-1.278317347E-2,-1.384843793E-2,-2.237055451E-2
2.147553845E0,1.597896684E-3,0.000000000E0,-1.757686399E-2
2.150401308E0,1.704423130E-2,1.651159860E-2,-1.171790902E-2
2.151783768E0,2.290318534E-2,3.195793182E-2,-5.326322280E-3
2.154440192E0,2.663161233E-2,3.994741663E-2,-2.663161140E-3
2.155617383E0,2.876213938E-2,3.036003746E-2,-2.663161140E-3
2.158510000E0,2.822950855E-2,1.118527725E-2,-9.587380104E-3
2.159703306E0,2.450108156E-2,-7.456851192E-3,-1.597896591E-2
2.162613577E0,1.704423130E-2,-2.024002373E-2,-1.917476021E-2
2.163840575E0,1.597896591E-2,-2.183792181E-2,-1.864212751E-2
2.166534883E0,1.917476021E-2,-1.171790902E-2,-1.331580617E-2
2.167921998E0,2.024002373E-2,6.924218964E-3,-5.326322280E-3
2.170775537E0,1.651159860E-2,2.609897964E-2,-5.326322280E-4
2.172358268E0,1.864212751E-2,3.302319720E-2,2.663161140E-3
2.174350383E0,1.810949668E-2,2.609897964E-2,1.597896684E-3
2.176052960E0,1.331580617E-2,1.384843793E-2,-3.195793368E-3
2.178436498E0,2.663161140E-3,-5.858954508E-3,-9.587380104E-3
2.180197998E0,-5.858954508E-3,-1.970739290E-2,-1.651159860E-2
2.182551460E0,-6.924218964E-3,-1.917476021E-2,-1.970739290E-2
2.184264152E0,-7.456851192E-3,-1.438106969E-2,-1.651159860E-2
2.186630383E0,-1.065264456E-3,1.597896684E-3,-1.278317347E-2
2.188348191E0,2.130528912E-3,1.917476021E-2,-7.989482954E-3
2.190856152E0,7.989482954E-3,3.195793182E-2,-3.728425596E-3
2.192627729E0,6.924218964E-3,2.822950855E-2,-4.793690052E-3
2.194819344E0,5.326322280E-3,1.491370238E-2,-1.012001187E-2
2.196516768E0,1.597896684E-3,-3.195793368E-3,-1.651159860E-2
2.198850383E0,5.326322280E-4,-1.757686399E-2,-2.237055451E-2
2.200681729E0,-1.065264456E-3,-1.917476021E-2,-2.290318534E-2
2.203002268E0,3.728425596E-3,-1.225054078E-2,-1.917476021E-2
2.204663460E0,1.012001187E-2,3.195793368E-3,-1.278317347E-2
2.207133537E0,1.810949668E-2,1.491370238E-2,-7.989482954E-3
2.208913883E0,2.183792181E-2,2.929477207E-2,-2.130528912E-3
2.211516344E0,2.450108156E-2,3.036003746E-2,-1.597896684E-3
2.213097421E0,2.077265643E-2,2.024002373E-2,-3.728425596E-3
2.215729731E0,1.438106969E-2,2.663161140E-3,-1.012001187E-2
2.216908383E0,1.171790902E-2,-1.118527725E-2,-1.544633508E-2
2.219797000E0,1.065264456E-2,-1.810949668E-2,-1.970739290E-2
2.220979998E0,6.924218964E-3,-1.491370238E-2,-1.651159860E-2
2.223899154E0,1.065264456E-2,-3.728425596E-3,-1.225054078E-2
2.225109729E0,1.757686399E-2,1.171790902E-2,-4.793690052E-3
2.227991460E0,1.757686399E-2,2.290318534E-2,-5.326322280E-4
2.229174768E0,1.864212751E-2,2.876213938E-2,1.597896684E-3
2.232103000E0,1.651159860E-2,2.237055451E-2,-1.597896684E-3
2.233613614E0,1.118527725E-2,1.065264456E-2,-9.587380104E-3
2.236160731E0,2.663161140E-3,-2.663161140E-3,-1.384843793E-2
2.237423037E0,-5.858954508E-3,-1.171790902E-2,-1.704423130E-2
2.240228346E0,-7.456851192E-3,-1.544633508E-2,-1.757686399E-2
2.241431075E0,-6.391586736E-3,-7.989482954E-3,-1.597896591E-2
2.244331115E0,2.130528912E-3,3.195793368E-3,-1.118527725E-2
2.245517998E0,3.195793368E-3,1.757686399E-2,-3.195793368E-3
2.248200921E0,3.195793368E-3,2.716424316E-2,-5.326322280E-4
2.249681344E0,2.130528912E-3,2.077265643E-2,-3.728425596E-3
2.252535423E0,-1.065264456E-3,1.012001187E-2,-6.924218964E-3
2.253896421E0,-4.793690052E-3,-6.924218964E-3,-1.331580617E-2
2.256037460E0,-5.326322280E-3,-1.544633508E-2,-1.651159860E-2
2.257783229E0,-2.130528912E-3,-1.438106969E-2,-1.651159860E-2
2.260119921E0,5.326322280E-4,-9.054748341E-3,-1.278317347E-2
2.261847306E0,7.456851192E-3,7.456851192E-3,-6.924218964E-3
2.264751000E0,1.864212751E-2,2.183792181E-2,-1.065264456E-3
2.265991075E0,2.556634694E-2,2.822950855E-2,1.065264456E-3
2.268402306E0,2.343581803E-2,2.396845073E-2,3.195793368E-3
2.270104114E0,2.183792181E-2,1.278317347E-2,-2.130528912E-3
2.272856421E0,1.970739290E-2,0.000000000E0,-8.522115648E-3
2.274340075E0,1.384843793E-2,-7.456851192E-3,-1.171790902E-2
2.276502114E0,1.118527725E-2,-1.491370238E-2,-1.331580617E-2
2.278197652E0,9.054748341E-3,-1.065264456E-2,-1.118527725E-2
2.280553460E0,1.065264456E-2,5.326322280E-4,-1.065264456E-2
2.282317537E0,1.864212751E-2,1.331580617E-2,-4.261057824E-3
2.284685575E0,1.384843793E-2,2.183792181E-2,3.195793368E-3
2.286400691E0,1.118527725E-2,2.609897964E-2,2.663161140E-3
2.289156306E0,7.456851192E-3,1.757686399E-2,-1.597896684E-3
2.290502960E0,2.130528912E-3,8.522115648E-3,-9.587380104E-3
2.293230614E0,-4.261057824E-3,-7.989482954E-3,-1.225054078E-2
2.294856614E0,-9.054748341E-3,-1.225054078E-2,-1.544633508E-2
2.297430961E0,-1.331580617E-2,-1.171790902E-2,-1.438106969E-2
2.298607729E0,-9.054748341E-3,-5.326322280E-3,-1.278317347E-2
2.301499423E0,-1.597896684E-3,5.326322280E-3,-5.326322280E-3
2.302839614E0,3.728425596E-3,1.757686399E-2,5.326322280E-4
2.305602538E0,7.456851192E-3,2.130528912E-2,1.597896684E-3
2.306974883E0,1.278317347E-2,2.024002373E-2,0.000000000E0
2.309705346E0,7.989482954E-3,4.793690052E-3,-3.728425596E-3
2.310989075E0,6.391586736E-3,-4.793690052E-3,-8.522115648E-3
2.313808576E0,1.012001187E-2,-1.225054078E-2,-1.171790902E-2
2.315201844E0,1.065264456E-2,-1.278317347E-2,-1.118527725E-2
2.317847269E0,1.384843793E-2,-6.391586736E-3,-7.989482954E-3
2.319016767E0,2.077265643E-2,5.326322280E-3,-5.326322280E-3
2.321916346E0,2.556634694E-2,1.917476021E-2,-1.065264456E-3
2.323193344E0,2.450108156E-2,2.237055451E-2,2.130528912E-3
2.326020038E0,1.970739290E-2,1.970739290E-2,3.728425596E-3
2.327228729E0,1.438106969E-2,1.278317347E-2,-2.663161140E-3
2.329885844E0,1.012001187E-2,-1.065264456E-3,-9.054748341E-3
2.331337998E0,1.065264456E-3,-1.331580617E-2,-1.118527725E-2
2.334216460E0,-7.456851192E-3,-1.331580617E-2,-1.065264456E-2
2.335600614E0,-1.331580617E-2,-5.858954508E-3,-1.012001187E-2
2.337735267E0,-1.012001187E-2,-5.326322280E-4,-7.989482954E-3
2.339433921E0,-8.522115648E-3,7.989482954E-3,-4.793690052E-3
2.341806652E0,-5.326322280E-3,1.384843793E-2,1.065264456E-3
2.343539191E0,-4.793690052E-3,1.810949668E-2,2.663161140E-3
2.345908844E0,-8.522115648E-3,1.065264456E-2,-2.130528912E-3
2.347636037E0,-8.522115648E-3,1.065264456E-3,-5.326322280E-3
2.350023575E0,-9.587380104E-3,-6.924218964E-3,-8.522115648E-3
2.351727537E0,-9.054748341E-3,-1.171790902E-2,-9.587380104E-3
2.354240537E0,-2.663161140E-3,-1.331580617E-2,-1.065264456E-2
2.356103114E0,5.326322280E-4,-4.261057824E-3,-9.054748341E-3
2.358191152E0,7.989482954E-3,3.195793368E-3,-4.261057824E-3
2.359865729E0,1.438106969E-2,1.597896591E-2,-5.326322280E-4
2.362234306E0,1.917476021E-2,1.970739290E-2,5.326322280E-4
2.363959691E0,2.396845073E-2,1.651159860E-2,0.000000000E0
2.366352806E0,2.077265643E-2,8.522115648E-3,-2.663161140E-3
2.368118306E0,1.757686399E-2,-5.858954508E-3,-9.587380104E-3
2.370607960E0,1.704423130E-2,-1.065264456E-2,-1.171790902E-2
2.372206729E0,1.384843793E-2,-7.456851192E-3,-1.065264456E-2
2.374935998E0,1.118527725E-2,-5.326322280E-4,-9.587380104E-3
2.376460690E0,1.171790902E-2,6.924218964E-3,-9.054748341E-3
2.379128576E0,1.491370238E-2,1.278317347E-2,-4.261057824E-3
2.380282614E0,1.065264456E-2,1.810949668E-2,-3.728425596E-3
2.383196884E0,2.663161140E-3,1.384843793E-2,-1.065264456E-3
2.384424421E0,-1.597896684E-3,7.989482954E-3,-5.858954508E-3
2.387300653E0,-1.065264456E-2,-4.793690052E-3,-1.225054078E-2
2.388494460E0,-1.225054078E-2,-1.438106969E-2,-1.278317347E-2
2.391403653E0,-1.597896591E-2,-1.171790902E-2,-1.278317347E-2
2.392597229E0,-1.491370238E-2,-8.522115648E-3,-1.171790902E-2
2.395506076E0,-1.225054078E-2,-5.326322280E-4,-8.522115648E-3
2.396910729E0,-6.391586736E-3,7.989482954E-3,-4.793690052E-3
2.399543038E0,-3.728425596E-3,1.384843793E-2,-1.065264456E-3
2.400711883E0,-2.130528912E-3,1.438106969E-2,-2.663161140E-3
2.403610691E0,4.261057824E-3,8.522115648E-3,-3.728425596E-3
2.404867075E0,3.728425596E-3,1.597896684E-3,-6.924218964E-3
2.407713038E0,6.391586736E-3,-7.456851192E-3,-1.065264456E-2
2.408897652E0,7.456851192E-3,-1.171790902E-2,-1.065264456E-2
2.411533383E0,1.278317347E-2,-6.924218964E-3,-9.587380104E-3
2.413000229E0,1.651159860E-2,0.000000000E0,-5.858954508E-3
2.415919422E0,2.024002373E-2,6.924218964E-3,-5.326322280E-3
2.417472960E0,2.024002373E-2,1.278317347E-2,-2.130528912E-3
2.419475652E0,2.343581803E-2,1.544633508E-2,-5.326322280E-4
2.421183075E0,2.237055451E-2,1.278317347E-2,-1.065264456E-3
2.423557767E0,1.704423130E-2,6.391586736E-3,-4.793690052E-3
2.425280229E0,9.587380104E-3,-4.261057824E-3,-8.522115648E-3
2.427646921E0,6.391586736E-3,-1.278317347E-2,-1.278317347E-2
2.429535960E0,-1.065264456E-3,-6.391586736E-3,-6.924218964E-3
2.431761806E0,-2.130528912E-3,-1.597896684E-3,-5.326322280E-3
2.433572806E0,-3.195793368E-3,5.326322280E-3,-3.728425596E-3
2.435993421E0,-3.728425596E-3,1.331580617E-2,-3.728425596E-3
2.437767383E0,-4.793690052E-3,1.171790902E-2,-1.065264456E-3
2.439904690E0,-7.456851192E-3,7.989482954E-3,5.326322280E-4
2.441570383E0,-7.456851192E-3,3.728425596E-3,-5.326322280E-3
2.444029767E0,-1.171790902E-2,-6.924218964E-3,-9.587380104E-3
2.445645575E0,-1.012001187E-2,-1.012001187E-2,-1.171790902E-2
2.448048498E0,-7.989482954E-3,-7.456851192E-3,-1.012001187E-2
2.449815267E0,-4.793690052E-3,-4.261057824E-3,-7.456851192E-3
2.452272652E0,-1.065264456E-3,4.793690052E-3,-5.326322280E-3
2.453918229E0,5.326322280E-3,1.171790902E-2,-3.195793368E-3
2.456631383E0,1.118527725E-2,1.491370238E-2,-1.597896684E-3
2.458181960E0,1.384843793E-2,1.651159860E-2,-2.130528912E-3
2.460829730E0,1.331580617E-2,1.065264456E-2,-2.663161140E-3
2.462026652E0,1.651159860E-2,2.663161140E-3,-6.924218964E-3
2.464898268E0,1.544633508E-2,-6.391586736E-3,-8.522115648E-3
2.466159114E0,1.384843793E-2,-6.924218964E-3,-9.587380104E-3
2.469001076E0,1.651159860E-2,-1.597896684E-3,-7.989482954E-3
2.470257267E0,1.491370238E-2,6.391586736E-3,-3.728425596E-3
2.473103768E0,1.438106969E-2,1.065264456E-2,-1.065264456E-3
2.474327883E0,1.331580617E-2,1.171790902E-2,3.195793368E-3
2.477206460E0,1.438106969E-2,1.012001187E-2,1.225054078E-2
2.478697267E0,1.704423130E-2,7.456851192E-3,1.917476021E-2
2.481263845E0,1.704423130E-2,3.728425596E-3,3.036003746E-2
2.482426921E0,1.704423130E-2,-4.261057824E-3,3.036003746E-2
2.485331499E0,2.024002373E-2,-2.077265643E-2,1.384843793E-2
2.486616690E0,1.757686399E-2,-2.503371425E-2,-5.858954508E-3
2.489434345E0,1.118527725E-2,-2.609897964E-2,-2.450108156E-2
2.490657344E0,4.261057824E-3,-1.118527725E-2,-4.367584363E-2
2.493271113E0,2.130528912E-3,1.012001187E-2,-4.474110901E-2
2.494778344E0,1.438106969E-2,3.302319720E-2,-3.355583176E-2
2.497636152E0,2.556634694E-2,4.793690145E-2,-1.597896591E-2
2.499041729E0,3.195793182E-2,4.687163606E-2,4.261057824E-3
2.501220152E0,3.408846259E-2,3.408846259E-2,1.810949668E-2
2.502915537E0,2.609897964E-2,1.118527725E-2,2.556634694E-2
2.505370075E0,3.195793368E-3,-1.544633508E-2,2.769687586E-2
2.506976344E0,-2.396845073E-2,-3.089267015E-2,2.343581803E-2
2.509856614E0,-4.048004746E-2,-3.621899337E-2,1.118527725E-2
2.511089498E0,-5.219795927E-2,-3.249056637E-2,-2.130528912E-3
2.513500229E0,-5.805691332E-2,-1.331580617E-2,-7.989482954E-3
2.515232883E0,-5.752427876E-2,1.118527725E-2,-8.522115648E-3
2.517771883E0,-5.166532472E-2,3.408846259E-2,-6.391586736E-3
2.519614498E0,-4.207794741E-2,4.154531285E-2,-3.728425596E-3
2.521706498E0,-3.142530099E-2,3.089267015E-2,3.195793368E-3
2.523347267E0,2.822950855E-2,4.101268202E-2,1.810949668E-2
2.525696844E0,6.764429063E-2,7.510114461E-2,1.810949668E-2
2.527428806E0,4.101268202E-2,3.142530099E-2,2.450108156E-2
2.529815767E0,-3.888215125E-2,-2.130528912E-2,2.450108156E-2
2.531535613E0,-1.187769845E-1,-4.367584363E-2,-5.326322280E-4
2.534059883E0,-1.640507281E-1,-8.841694891E-2,-2.450108156E-2
2.535670690E0,-1.640507281E-1,-1.225054115E-1,-3.888215125E-2
2.538454113E0,-1.390170157E-1,-1.038632840E-1,-3.728425503E-2
2.540047344E0,-7.137271762E-2,1.384843793E-2,-5.326322280E-3
2.542570922E0,-3.994741663E-2,1.155811921E-1,2.663161233E-2
2.543758537E0,-2.077265643E-2,1.683117896E-1,5.379585549E-2
2.546639075E0,2.663161140E-3,1.480717659E-1,4.527373984E-2
2.547873267E0,2.343581803E-2,5.912217870E-2,1.278317347E-2
2.550742345E0,3.249056637E-2,-5.539375171E-2,-2.556634694E-2
2.551948690E0,1.864212751E-2,-1.246359423E-1,-4.580637068E-2
2.554845575E0,-1.065264456E-2,-1.262338310E-1,-4.261057824E-2
2.556061344E0,-3.249056637E-2,-6.924218684E-2,-2.450108156E-2
2.558948152E0,-2.237055451E-2,1.065264456E-3,-1.065264456E-3
2.560385421E0,1.544633508E-2,5.273059011E-2,2.130528912E-2
2.562985075E0,5.273059011E-2,7.403588295E-2,3.728425503E-2
2.564191767E0,6.018744037E-2,7.776430249E-2,4.261057824E-2
2.567053037E0,3.568635881E-2,5.432848632E-2,3.781688958E-2
2.568304844E0,-3.195793368E-3,1.544633508E-2,2.237055451E-2
2.571155729E0,-4.048004746E-2,-3.408846259E-2,-2.130528912E-3
2.572446075E0,-5.166532472E-2,-7.456851006E-2,-2.077265643E-2
2.575024075E0,-4.687163606E-2,-8.522115648E-2,-2.663161233E-2
2.576493460E0,-4.261057824E-2,-5.326322466E-2,-1.331580617E-2
2.579362306E0,-3.515372798E-2,9.054748341E-3,1.171790902E-2
2.580753690E0,-2.982740477E-2,6.817692518E-2,2.929477207E-2
2.582968306E0,-2.929477207E-2,9.640643001E-2,3.568635881E-2
2.584647883E0,-3.249056637E-2,7.989483327E-2,2.716424316E-2
2.587028460E0,-3.408846259E-2,2.822950855E-2,4.793690052E-3
2.588763344E0,-3.781688958E-2,-3.568635881E-2,-2.343581803E-2
2.591072729E0,-3.781688958E-2,-7.829693705E-2,-4.261057824E-2
2.592799344E0,-4.048004746E-2,-8.149272949E-2,-4.580637068E-2
2.595208844E0,-3.036003746E-2,-4.367584363E-2,-3.142530099E-2
2.596916613E0,-2.130528912E-3,1.171790902E-2,-1.597896591E-2
2.599532036E0,5.912217870E-2,6.924218684E-2,7.989482954E-3
2.601345460E0,8.468852192E-2,7.243798673E-2,1.544633508E-2
2.603441883E0,9.534116834E-2,5.805691332E-2,1.065264456E-2
2.605087690E0,9.587380290E-2,1.810949668E-2,-4.261057824E-3
2.607467460E0,9.427590668E-2,-2.982740477E-2,-2.183792181E-2
2.609400767E0,9.054747969E-2,-6.178534031E-2,-3.621899337E-2
2.611487383E0,9.747169912E-2,-6.924218684E-2,-3.888215125E-2
2.613256113E0,1.161138266E-1,-4.846953228E-2,-2.609897964E-2
2.615687036E0,1.299622655E-1,-1.118527725E-2,-6.924218964E-3
2.617452998E0,1.422128081E-1,3.249056637E-2,9.587380104E-3
2.620065036E0,1.416801661E-1,6.285060197E-2,2.077265643E-2
2.621598921E0,1.246359423E-1,6.444849819E-2,2.130528912E-2
2.624262075E0,9.747169912E-2,3.302319720E-2,7.456851192E-3
2.625513152E0,6.870955974E-2,-1.118527725E-2,-1.171790902E-2
2.628329921E0,3.675162420E-2,-5.858954415E-2,-2.929477207E-2
2.629681575E0,1.225054078E-2,-8.149272949E-2,-4.048004746E-2
2.632432652E0,-5.326322280E-3,-6.817692518E-2,-3.888215125E-2
2.633815960E0,-1.757686399E-2,-2.609897964E-2,-2.663161233E-2
2.636535344E0,-2.290318534E-2,2.130528912E-2,-1.012001187E-2
2.637787690E0,-2.077265643E-2,5.166532472E-2,1.597896684E-3
2.640637883E0,-2.183792181E-2,5.432848632E-2,6.391586736E-3
2.642069690E0,-2.450108156E-2,3.142530099E-2,-1.597896684E-3
2.644676383E0,-3.781688958E-2,-6.924218964E-3,-1.065264456E-2
2.645860267E0,-5.113269389E-2,-3.568635881E-2,-2.237055451E-2
2.648744960E0,-6.551376730E-2,-3.621899337E-2,-2.024002373E-2
2.650051267E0,-6.817692518E-2,-1.810949668E-2,-3.728425596E-3
2.652848690E0,-5.273059011E-2,5.326322280E-4,9.054748341E-3
2.654081036E0,-2.822950855E-2,1.544633508E-2,1.544633508E-2
2.656744421E0,-6.391586736E-3,2.663161233E-2,1.704423130E-2
2.658135998E0,-7.989482954E-3,3.408846259E-2,1.331580617E-2
2.661055037E0,-2.290318534E-2,2.556634694E-2,5.326322280E-3
2.662526344E0,-2.609897964E-2,3.195793368E-3,-4.793690052E-3
2.664605652E0,-2.130528912E-2,-3.142530099E-2,-1.491370238E-2
2.666374075E0,-1.597896684E-3,-5.113269389E-2,-1.917476021E-2
2.668700075E0,1.917476021E-2,-4.261057824E-2,-1.225054078E-2
2.670385036E0,3.089267015E-2,-1.118527725E-2,2.130528912E-3
2.672808036E0,3.781688958E-2,2.982740477E-2,1.970739290E-2
2.674532998E0,4.101268202E-2,5.912217870E-2,2.982740477E-2
2.676881690E0,4.687163606E-2,5.432848632E-2,2.396845073E-2
2.678596613E0,4.580637068E-2,2.024002373E-2,1.171790902E-2
2.681118421E0,4.101268202E-2,-1.171790902E-2,-5.858954508E-3
2.682967883E0,2.290318534E-2,-3.408846259E-2,-2.183792181E-2
2.685029075E0,3.195793368E-3,-3.675162420E-2,-2.450108156E-2
2.686701460E0,-6.924218964E-3,-1.917476021E-2,-2.024002373E-2
2.689093267E0,-6.391586736E-3,5.326322280E-4,-1.012001187E-2
2.690806152E0,4.793690052E-3,1.544633508E-2,1.597896684E-3
2.693189113E0,1.438106969E-2,2.769687586E-2,9.054748341E-3
2.695028883E0,7.989482954E-3,3.195793182E-2,1.491370238E-2
2.697437844E0,-1.225054078E-2,2.716424316E-2,1.438106969E-2
2.699059767E0,-3.621899337E-2,1.491370238E-2,7.456851192E-3
2.701773190E0,-4.953479767E-2,-1.544633508E-2,-5.858954508E-3
2.703355998E0,-5.166532472E-2,-4.261057824E-2,-1.864212751E-2
2.705966498E0,-4.367584363E-2,-5.166532472E-2,-2.396845073E-2
2.707161613E0,-3.195793182E-2,-3.834952042E-2,-1.651159860E-2
2.710034306E0,-2.503371425E-2,-2.663161140E-3,-4.261057824E-3
2.711223575E0,-1.438106969E-2,3.675162420E-2,1.278317347E-2
2.714138421E0,5.326322280E-4,5.699164793E-2,1.917476021E-2
2.715362690E0,1.278317347E-2,4.580637068E-2,1.544633508E-2
2.718240959E0,2.343581803E-2,-1.597896684E-3,5.326322280E-4
2.719462883E0,2.130528912E-2,-3.249056637E-2,-1.171790902E-2
2.722344229E0,1.171790902E-2,-4.207794741E-2,-1.757686399E-2
2.723833536E0,9.054748341E-3,-3.302319720E-2,-1.597896591E-2
2.726402882E0,1.438106969E-2,-1.704423130E-2,-9.587380104E-3
2.727560383E0,2.822950855E-2,6.924218964E-3,2.130528912E-3
2.730456883E0,4.101268202E-2,2.396845073E-2,9.054748341E-3
2.731673690E0,4.633900523E-2,3.408846259E-2,1.384843793E-2
2.734574075E0,3.462109342E-2,3.781688958E-2,1.384843793E-2
2.735780229E0,1.704423130E-2,2.450108156E-2,9.054748341E-3
2.738546421E0,-1.065264456E-3,-1.597896684E-3,-3.195793368E-3
2.739947267E0,-1.651159860E-2,-2.929477207E-2,-1.597896591E-2
2.742779729E0,-2.183792181E-2,-4.687163606E-2,-1.917476021E-2
2.744161844E0,-2.503371425E-2,-4.048004746E-2,-1.810949668E-2
2.746337383E0,-2.290318534E-2,-1.810949668E-2,-7.989482954E-3
2.748006306E0,-2.290318534E-2,1.491370238E-2,3.195793368E-3
2.750395536E0,-1.917476021E-2,3.515372798E-2,1.544633508E-2
2.752117459E0,-1.491370238E-2,3.994741663E-2,1.491370238E-2
2.754995305E0,-1.544633508E-2,2.130528912E-2,9.587380104E-3
2.756234344E0,-1.384843793E-2,-6.391586736E-3,-1.597896684E-3
2.758623806E0,-1.810949668E-2,-3.142530099E-2,-1.065264456E-2
2.760328998E0,-2.503371425E-2,-3.994741663E-2,-1.651159860E-2
2.763032767E0,-2.183792181E-2,-3.142530099E-2,-1.651159860E-2
2.764718921E0,-1.118527725E-2,-1.438106969E-2,-8.522115648E-3
2.766848306E0,7.989482954E-3,4.261057824E-3,2.130528912E-3
2.768495998E0,2.237055451E-2,2.290318534E-2,1.118527725E-2
2.770830998E0,3.462109342E-2,3.249056637E-2,1.651159860E-2
2.772698036E0,3.675162420E-2,3.089267015E-2,1.597896591E-2
2.774923036E0,2.556634694E-2,5.326322280E-3,1.065264456E-2
2.776649267E0,1.864212751E-2,-1.864212751E-2,-1.597896684E-3
2.779124806E0,1.544633508E-2,-3.568635881E-2,-9.054748341E-3
2.780771690E0,9.587380104E-3,-3.568635881E-2,-1.012001187E-2
2.783616959E0,8.522115648E-3,-2.024002373E-2,-2.663161140E-3
2.785185690E0,6.391586736E-3,6.924218964E-3,7.456851192E-3
2.787710844E0,4.793690052E-3,2.929477207E-2,1.438106969E-2
2.788889767E0,-1.597896684E-3,3.781688958E-2,1.917476021E-2
2.791778459E0,-6.924218964E-3,2.503371425E-2,1.704423130E-2
2.792969690E0,-1.597896591E-2,3.728425596E-3,1.118527725E-2
2.795881382E0,-2.716424316E-2,-2.077265643E-2,0.000000000E0
2.797114421E0,-3.781688958E-2,-3.781688958E-2,-6.391586736E-3
2.799984613E0,-4.633900523E-2,-3.728425503E-2,-7.989482954E-3
2.801535729E0,-4.367584363E-2,-2.663161233E-2,-5.326322280E-3
2.804087728E0,-3.249056637E-2,-7.989482954E-3,1.065264456E-3
2.805508190E0,-1.810949668E-2,1.491370238E-2,8.522115648E-3
2.808126113E0,-5.858954508E-3,2.609897964E-2,1.757686399E-2
2.809415536E0,-2.130528912E-3,2.769687586E-2,1.704423130E-2
2.812194228E0,0.000000000E0,1.917476021E-2,1.384843793E-2
2.813450921E0,2.130528912E-3,-2.130528912E-3,6.391586736E-3
2.816298113E0,3.728425596E-3,-2.183792181E-2,-5.326322280E-4
2.817547806E0,4.261057824E-3,-3.302319720E-2,-2.663161140E-3
2.820215421E0,1.278317347E-2,-3.302319720E-2,-4.793690052E-3
2.821699536E0,2.237055451E-2,-1.491370238E-2,5.326322280E-4
2.824504844E0,2.822950855E-2,9.054748341E-3,9.587380104E-3
2.825900729E0,3.302319720E-2,2.769687586E-2,1.757686399E-2
2.828057382E0,3.302319720E-2,3.675162420E-2,2.024002373E-2
2.829788152E0,2.822950855E-2,2.609897964E-2,1.491370238E-2
2.832360075E0,1.171790902E-2,-6.391586736E-3,5.326322280E-3
2.833799575E0,3.728425596E-3,-1.651159860E-2,2.663161140E-3
2.836147382E0,-1.384843793E-2,-3.249056637E-2,-6.924218964E-3
2.837861459E0,-2.183792181E-2,-2.822950855E-2,-5.326322280E-3
2.840267152E0,-2.609897964E-2,-1.384843793E-2,1.597896684E-3
2.841960767E0,-2.450108156E-2,9.587380104E-3,8.522115648E-3
2.844472959E0,-2.077265643E-2,2.183792181E-2,1.491370238E-2
2.846375575E0,-2.237055451E-2,2.450108156E-2,1.704423130E-2
2.848555729E0,-2.663161233E-2,1.757686399E-2,1.171790902E-2
2.850106882E0,-3.355583176E-2,1.065264456E-3,7.456851192E-3
2.852531998E0,-3.781688958E-2,-1.704423130E-2,-3.195793368E-3
2.854184344E0,-4.048004746E-2,-3.142530099E-2,-5.858954508E-3
2.856601036E0,-3.728425503E-2,-3.142530099E-2,-8.522115648E-3
2.858225267E0,-2.556634694E-2,-2.130528912E-2,-4.261057824E-3
2.860706152E0,-1.065264456E-2,-6.391586736E-3,4.261057824E-3
2.862373229E0,2.130528912E-3,1.278317347E-2,1.331580617E-2
2.865131036E0,1.012001187E-2,2.716424316E-2,1.651159860E-2
2.866655767E0,1.544633508E-2,2.503371425E-2,1.491370238E-2
2.869282613E0,2.024002373E-2,1.331580617E-2,1.012001187E-2
2.870455306E0,2.024002373E-2,-6.391586736E-3,3.195793368E-3
2.873350267E0,1.810949668E-2,-2.237055451E-2,-2.663161140E-3
2.874552036E0,1.597896591E-2,-3.142530099E-2,-6.391586736E-3
2.877453151E0,1.651159860E-2,-2.609897964E-2,-2.663161140E-3
2.878647536E0,1.544633508E-2,-5.858954508E-3,4.261057824E-3
2.881555690E0,1.810949668E-2,1.065264456E-2,1.384843793E-2
2.882767421E0,1.864212751E-2,1.917476021E-2,1.970739290E-2
2.885658151E0,1.970739290E-2,2.024002373E-2,1.757686399E-2
2.887083421E0,9.054748341E-3,1.065264456E-2,1.651159860E-2
2.889694728E0,-5.858954508E-3,-5.326322280E-4,9.054748341E-3
2.890864075E0,-1.917476021E-2,-1.544633508E-2,1.597896684E-3
2.893758421E0,-2.876213938E-2,-2.876213938E-2,-1.597896684E-3
2.894942844E0,-3.515372798E-2,-3.089267015E-2,-2.663161140E-3
2.897863882E0,-3.195793182E-2,-1.171790902E-2,4.261057824E-3
2.899066306E0,-2.822950855E-2,3.195793368E-3,1.171790902E-2
2.901770306E0,-2.343581803E-2,1.757686399E-2,1.757686399E-2
2.903207690E0,-2.450108156E-2,2.183792181E-2,1.864212751E-2
2.906040267E0,-2.556634694E-2,1.331580617E-2,1.438106969E-2
2.907521959E0,-2.396845073E-2,-2.663161140E-3,8.522115648E-3
2.909600844E0,-2.450108156E-2,-1.970739290E-2,1.597896684E-3
2.911296882E0,-2.077265643E-2,-3.089267015E-2,-1.597896684E-3
2.913691267E0,-1.597896591E-2,-3.249056637E-2,0.000000000E0
2.915406036E0,-6.924218964E-3,-1.864212751E-2,9.054748341E-3
2.917783690E0,2.130528912E-3,2.663161140E-3,1.438106969E-2
2.919500767E0,1.331580617E-2,1.704423130E-2,2.450108156E-2
2.921884652E0,2.130528912E-2,2.343581803E-2,2.716424316E-2
2.923621190E0,2.290318534E-2,1.864212751E-2,2.556634694E-2
2.926108959E0,1.810949668E-2,6.924218964E-3,1.970739290E-2
2.927873305E0,8.522115648E-3,-7.456851192E-3,1.065264456E-2
2.930040882E0,0.000000000E0,-2.077265643E-2,4.261057824E-3
2.931734882E0,-9.054748341E-3,-2.663161233E-2,2.130528912E-3
2.934089075E0,-1.118527725E-2,-2.183792181E-2,1.065264456E-3
2.935833152E0,-1.384843793E-2,-9.054748341E-3,5.858954508E-3
2.938315652E0,-1.118527725E-2,5.858954508E-3,1.438106969E-2
2.940013113E0,-1.278317347E-2,1.704423130E-2,2.130528912E-2
2.942375959E0,-1.704423130E-2,2.130528912E-2,2.290318534E-2
2.944009959E0,-2.556634694E-2,1.118527725E-2,2.077265643E-2
2.946739229E0,-3.302319720E-2,-4.261057824E-3,1.544633508E-2
2.948314305E0,-3.621899337E-2,-2.183792181E-2,8.522115648E-3
2.950978535E0,-4.207794741E-2,-3.089267015E-2,5.326322280E-3
2.952207575E0,-4.101268202E-2,-2.822950855E-2,3.728425596E-3
2.955046266E0,-3.941478580E-2,-1.704423130E-2,7.989482954E-3
2.956275921E0,-2.556634694E-2,2.663161140E-3,1.544633508E-2
2.959148882E0,-1.012001187E-2,7.456851192E-3,1.651159860E-2
2.960375959E0,0.000000000E0,5.858954508E-3,1.384843793E-2
2.963250997E0,1.597896684E-3,4.261057824E-3,1.331580617E-2
2.964463652E0,5.326322280E-4,-1.065264456E-3,1.384843793E-2
2.967352728E0,4.261057824E-3,-1.171790902E-2,8.522115648E-3
2.968918152E0,1.171790902E-2,-1.651159860E-2,9.054748341E-3
2.971409497E0,1.597896591E-2,-2.077265643E-2,8.522115648E-3
2.972592613E0,1.864212751E-2,-1.225054078E-2,1.118527725E-2
2.975476920E0,2.024002373E-2,-3.728425596E-3,1.651159860E-2
2.976758382E0,2.822950855E-2,1.118527725E-2,2.396845073E-2
2.979575421E0,3.249056637E-2,3.195793182E-2,2.663161233E-2
2.980781459E0,1.704423130E-2,3.036003746E-2,2.663161233E-2
2.983488421E0,-2.343581803E-2,5.326322280E-3,2.876213938E-2
2.984924075E0,-8.042746782E-2,-2.237055451E-2,2.183792181E-2
2.987767882E0,-1.267664731E-1,-4.261057824E-2,1.065264456E-2
2.989211690E0,-1.576591432E-1,-6.231797114E-2,2.663161140E-3
2.991398459E0,-1.661812514E-1,-6.125270575E-2,-3.728425596E-3
2.993038575E0,-1.576591432E-1,-4.261057824E-2,-2.130528912E-3
2.995430921E0,-1.432780623E-1,-5.326322280E-3,9.587380104E-3
2.997118305E0,-1.241033077E-1,3.302319720E-2,2.343581803E-2
2.999998843E0,-1.022653878E-1,5.166532472E-2,2.982740477E-2
3.001405575E0,-7.297061384E-2,4.367584363E-2,2.237055451E-2
3.003749575E0,-3.941478580E-2,1.065264456E-2,8.522115648E-3
3.005430959E0,-1.225054078E-2,-2.876213938E-2,-1.597896684E-3
3.007935882E0,5.326322280E-3,-5.219795927E-2,-8.522115648E-3
3.009685844E0,2.024002373E-2,-3.941478580E-2,-2.663161140E-3
3.011941805E0,3.728425503E-2,-9.587380104E-3,1.012001187E-2
3.013628152E0,4.953479767E-2,1.597896684E-3,1.597896591E-2
3.016056536E0,9.161274135E-2,2.343581803E-2,2.343581803E-2
3.017588882E0,1.070590764E-1,2.343581803E-2,2.130528912E-2
3.019916767E0,1.012001261E-1,2.077265643E-2,1.970739290E-2
3.021776575E0,8.042746782E-2,1.225054078E-2,1.810949668E-2
3.024103844E0,5.219795927E-2,-1.597896684E-3,1.118527725E-2
3.025735344E0,3.355583176E-2,-2.077265643E-2,9.054748341E-3
3.028545998E0,1.704423130E-2,-3.941478580E-2,4.261057824E-3
3.030213844E0,1.012001187E-2,-4.101268202E-2,3.728425596E-3
3.032710112E0,-1.065264456E-3,-2.929477207E-2,1.278317347E-2
3.033962228E0,-7.456851192E-3,-6.391586736E-3,2.237055451E-2
3.036778997E0,-1.810949668E-2,1.331580617E-2,2.982740477E-2
3.038080421E0,-2.077265643E-2,1.970739290E-2,2.822950855E-2
3.040882304E0,-2.024002373E-2,7.456851192E-3,2.237055451E-2
3.042085652E0,-1.225054078E-2,-1.757686399E-2,1.065264456E-2
3.044985381E0,-9.054748341E-3,-3.941478580E-2,5.326322280E-4
3.046166998E0,-5.326322280E-4,-4.420847446E-2,-3.195793368E-3
3.049087689E0,9.587380104E-3,-3.462109342E-2,-1.065264456E-3
3.050614075E0,2.556634694E-2,-1.651159860E-2,6.391586736E-3
3.053125266E0,4.633900523E-2,2.663161140E-3,1.757686399E-2
3.054379344E0,6.870955974E-2,1.917476021E-2,2.290318534E-2
3.057193074E0,7.776430249E-2,2.343581803E-2,2.769687586E-2
3.058411305E0,6.764429063E-2,2.237055451E-2,2.769687586E-2
3.061296150E0,5.113269389E-2,1.065264456E-2,2.183792181E-2
3.062477728E0,2.822950855E-2,-6.924218964E-3,1.384843793E-2
3.065186344E0,1.118527725E-2,-2.822950855E-2,2.663161140E-3
3.066626575E0,-4.261057824E-3,-3.888215125E-2,-3.195793368E-3
3.069500766E0,-2.237055451E-2,-2.396845073E-2,4.261057824E-3
3.070913036E0,-3.355583176E-2,-1.065264456E-3,1.544633508E-2
3.073102267E0,-4.367584363E-2,1.597896591E-2,2.450108156E-2
3.074757767E0,-5.699164793E-2,2.450108156E-2,3.089267015E-2
3.077142459E0,-6.072007492E-2,1.331580617E-2,2.663161233E-2
3.078852844E0,-7.084008306E-2,-4.793690052E-3,2.077265643E-2
3.081262305E0,-7.829693705E-2,-2.769687586E-2,1.118527725E-2
3.082873998E0,-8.415589482E-2,-4.207794741E-2,5.326322280E-3
3.085243882E0,-7.829693705E-2,-4.101268202E-2,4.793690052E-3
3.086984728E0,-6.604639441E-2,-2.822950855E-2,7.989482954E-3
3.089489267E0,-4.207794741E-2,-1.065264456E-2,1.491370238E-2
3.091484998E0,-2.183792181E-2,9.587380104E-3,2.343581803E-2
3.093481998E0,-1.597896684E-3,1.970739290E-2,2.876213938E-2
3.095094844E0,1.225054078E-2,2.024002373E-2,2.982740477E-2
3.097474305E0,2.503371425E-2,1.118527725E-2,2.503371425E-2
3.099231305E0,2.822950855E-2,-6.924218964E-3,1.810949668E-2
3.101654421E0,2.929477207E-2,-2.130528912E-2,9.587380104E-3
3.103364805E0,3.302319720E-2,-2.982740477E-2,5.326322280E-3
3.105767882E0,3.302319720E-2,-2.822950855E-2,4.793690052E-3
3.107414228E0,3.568635881E-2,-1.278317347E-2,1.065264456E-2
3.110178767E0,3.515372798E-2,6.391586736E-3,2.077265643E-2
3.111676728E0,3.462109342E-2,2.130528912E-2,2.609897964E-2
3.114347458E0,2.716424316E-2,2.609897964E-2,2.609897964E-2
3.115519959E0,1.544633508E-2,1.757686399E-2,2.503371425E-2
3.118415689E0,-3.195793368E-3,-1.597896684E-3,1.970739290E-2
3.119662228E0,-2.290318534E-2,-2.024002373E-2,1.438106969E-2
3.122515036E0,-3.888215125E-2,-3.408846259E-2,7.989482954E-3
3.123708151E0,-4.846953228E-2,-3.888215125E-2,6.391586736E-3
3.126619689E0,-5.699164793E-2,-2.929477207E-2,7.456851192E-3
3.127809767E0,-5.805691332E-2,-9.054748341E-3,1.384843793E-2
3.130721381E0,-5.273059011E-2,1.438106969E-2,2.237055451E-2
3.132103728E0,-4.687163606E-2,1.651159860E-2,2.556634694E-2
3.134759189E0,-4.207794741E-2,7.989482954E-3,2.024002373E-2
3.135972613E0,-3.781688958E-2,-5.858954508E-3,1.438106969E-2
3.138827035E0,-3.249056637E-2,-2.237055451E-2,9.054748341E-3
3.140035113E0,-2.663161233E-2,-2.822950855E-2,2.130528912E-3
3.142930073E0,-1.917476021E-2,-3.036003746E-2,1.597896684E-3
3.144128382E0,-5.326322280E-3,-1.757686399E-2,2.663161140E-3
3.146787767E0,1.065264456E-2,-3.728425596E-3,1.065264456E-2
3.148249998E0,2.663161233E-2,1.384843793E-2,1.544633508E-2
3.151135612E0,3.249056637E-2,1.970739290E-2,1.864212751E-2
3.152700844E0,3.515372798E-2,1.917476021E-2,1.704423130E-2
3.154755228E0,2.769687586E-2,9.054748341E-3,1.544633508E-2
3.156456421E0,2.077265643E-2,-5.326322280E-3,1.012001187E-2
3.158833690E0,1.331580617E-2,-2.450108156E-2,4.793690052E-3
3.160523344E0,5.858954508E-3,-3.249056637E-2,3.728425596E-3
3.162881305E0,1.065264456E-3,-2.929477207E-2,5.326322280E-3
3.164623382E0,-9.054748341E-3,-1.491370238E-2,9.587380104E-3
3.167001536E0,-1.278317347E-2,3.195793368E-3,1.597896591E-2
3.168812575E0,-1.757686399E-2,1.384843793E-2,2.343581803E-2
3.171218267E0,-2.343581803E-2,1.278317347E-2,2.503371425E-2
3.172977651E0,-2.822950855E-2,5.326322280E-4,1.917476021E-2
3.175131921E0,-3.462109342E-2,-1.278317347E-2,1.331580617E-2
3.176776036E0,-4.420847446E-2,-2.556634694E-2,8.522115648E-3
3.179191767E0,-4.953479767E-2,-3.249056637E-2,5.326322280E-3
3.180902651E0,-4.900216311E-2,-2.929477207E-2,6.391586736E-3
3.183298190E0,-3.994741663E-2,-2.077265643E-2,7.989482954E-3
3.185061151E0,-3.036003746E-2,-9.054748341E-3,1.171790902E-2
3.187453190E0,-2.024002373E-2,1.597896684E-3,1.704423130E-2
3.189167844E0,-8.522115648E-3,1.331580617E-2,1.917476021E-2
3.191835344E0,-5.858954508E-3,7.989482954E-3,1.438106969E-2
3.193398151E0,-3.195793368E-3,-1.065264456E-3,8.522115648E-3
3.196044073E0,1.065264456E-3,-1.704423130E-2,3.728425596E-3
3.197227767E0,7.989482954E-3,-2.609897964E-2,-2.130528912E-3
3.200111381E0,1.118527725E-2,-2.663161233E-2,5.326322280E-4
3.201358613E0,1.225054078E-2,-1.544633508E-2,6.391586736E-3
3.204214650E0,1.438106969E-2,2.663161140E-3,1.384843793E-2
3.205455036E0,1.704423130E-2,1.597896591E-2,1.757686399E-2
3.208317881E0,1.651159860E-2,1.704423130E-2,2.237055451E-2
3.209530344E0,1.757686399E-2,1.118527725E-2,1.917476021E-2
3.212420919E0,7.456851192E-3,-2.130528912E-3,1.544633508E-2
3.213966151E0,-4.793690052E-3,-1.491370238E-2,8.522115648E-3
3.216477765E0,-1.384843793E-2,-2.237055451E-2,6.391586736E-3
3.217645767E0,-2.183792181E-2,-2.450108156E-2,5.858954508E-3
3.220545688E0,-2.396845073E-2,-1.970739290E-2,6.391586736E-3
3.221767344E0,-2.396845073E-2,-1.118527725E-2,1.225054078E-2
3.224648842E0,-2.237055451E-2,1.065264456E-3,1.651159860E-2
3.225845382E0,-2.237055451E-2,1.171790902E-2,1.917476021E-2
3.228516921E0,-2.396845073E-2,1.384843793E-2,2.077265643E-2
3.229970036E0,-2.609897964E-2,4.793690052E-3,1.651159860E-2
3.232856073E0,-2.822950855E-2,-6.924218964E-3,1.065264456E-2
3.234454344E0,-2.716424316E-2,-1.864212751E-2,5.858954508E-3
3.236391305E0,-2.450108156E-2,-2.396845073E-2,1.065264456E-3
3.238068498E0,-1.704423130E-2,-2.024002373E-2,3.728425596E-3
3.240439882E0,-1.171790902E-2,-9.054748341E-3,7.989482954E-3
3.242241690E0,-6.924218964E-3,7.456851192E-3,1.278317347E-2
3.245074342E0,3.728425596E-3,1.544633508E-2,1.597896591E-2
3.246320228E0,1.331580617E-2,1.438106969E-2,1.597896591E-2
3.248733344E0,1.491370238E-2,5.326322280E-3,1.438106969E-2
3.250500536E0,1.065264456E-2,-5.858954508E-3,9.054748341E-3
3.252975844E0,4.261057824E-3,-1.278317347E-2,5.326322280E-3
3.254674074E0,2.663161140E-3,-2.183792181E-2,5.858954508E-3
3.256844690E0,5.326322280E-4,-1.544633508E-2,6.924218964E-3
3.258501305E0,5.326322280E-4,-1.012001187E-2,1.012001187E-2
3.260881498E0,-1.597896684E-3,-1.597896684E-3,1.278317347E-2
3.262669690E0,-2.130528912E-3,7.989482954E-3,1.810949668E-2
3.265010767E0,-6.924218964E-3,1.278317347E-2,1.970739290E-2
3.266774421E0,-1.225054078E-2,9.587380104E-3,1.757686399E-2
3.269169882E0,-1.864212751E-2,-3.728425596E-3,1.118527725E-2
3.270832690E0,-2.609897964E-2,-1.651159860E-2,7.456851192E-3
3.273536998E0,-2.929477207E-2,-2.183792181E-2,6.924218964E-3
3.275181690E0,-2.929477207E-2,-2.290318534E-2,4.261057824E-3
3.277783688E0,-2.716424316E-2,-1.651159860E-2,7.989482954E-3
3.278942959E0,-2.343581803E-2,-5.326322280E-3,1.118527725E-2
3.281851150E0,-1.757686399E-2,7.456851192E-3,1.331580617E-2
3.283074459E0,-1.118527725E-2,1.278317347E-2,1.651159860E-2
3.285953342E0,-6.924218964E-3,7.456851192E-3,1.544633508E-2
3.287192305E0,-4.793690052E-3,-1.065264456E-3,1.118527725E-2
3.290055573E0,-6.924218964E-3,-1.012001187E-2,7.456851192E-3
3.291259267E0,-6.391586736E-3,-1.651159860E-2,4.261057824E-3
3.294158419E0,-3.195793368E-3,-1.704423130E-2,3.728425596E-3
3.295519767E0,-1.597896684E-3,-1.491370238E-2,4.261057824E-3
3.298196111E0,2.130528912E-3,-5.858954508E-3,6.924218964E-3
3.299373113E0,4.793690052E-3,2.130528912E-3,1.278317347E-2
3.302263765E0,7.989482954E-3,1.225054078E-2,1.331580617E-2
3.303463651E0,5.858954508E-3,1.171790902E-2,1.491370238E-2
3.306366419E0,-2.663161140E-3,0.000000000E0,1.171790902E-2
3.307546190E0,-8.522115648E-3,-1.118527725E-2,9.054748341E-3
3.310206421E0,-1.171790902E-2,-1.917476021E-2,3.195793368E-3
3.311683074E0,-1.651159860E-2,-2.237055451E-2,4.793690052E-3
3.314570034E0,-1.704423130E-2,-1.810949668E-2,5.326322280E-3
3.315959728E0,-1.651159860E-2,-8.522115648E-3,1.065264456E-2
3.318079036E0,-1.491370238E-2,2.130528912E-3,1.438106969E-2
3.319789998E0,-1.225054078E-2,8.522115648E-3,1.704423130E-2
3.322154690E0,-1.118527725E-2,5.858954508E-3,1.704423130E-2
3.323911536E0,-1.171790902E-2,3.728425596E-3,1.384843793E-2
3.326252190E0,-1.278317347E-2,-5.858954508E-3,9.587380104E-3
3.327995921E0,-1.651159860E-2,-1.278317347E-2,5.326322280E-3
3.330404651E0,-1.491370238E-2,-2.024002373E-2,3.195793368E-3
3.332116151E0,-9.587380104E-3,-1.757686399E-2,4.261057824E-3
3.334703844E0,-5.858954508E-3,-9.054748341E-3,7.456851192E-3
3.336463998E0,-1.065264456E-3,-1.597896684E-3,1.012001187E-2
3.338540267E0,1.597896684E-3,6.391586736E-3,1.704423130E-2
3.340226882E0,7.456851192E-3,1.171790902E-2,1.491370238E-2
3.342600305E0,6.391586736E-3,6.924218964E-3,1.597896591E-2
3.344301613E0,3.728425596E-3,1.597896684E-3,1.118527725E-2
3.346746305E0,5.326322280E-4,-1.012001187E-2,5.326322280E-3
3.348448728E0,-6.924218964E-3,-1.704423130E-2,4.261057824E-3
3.351102959E0,-7.989482954E-3,-1.864212751E-2,4.261057824E-3
3.352526728E0,-7.456851192E-3,-1.544633508E-2,5.326322280E-3
3.355399497E0,-9.054748341E-3,-3.728425596E-3,9.587380104E-3
3.356827921E0,-9.054748341E-3,2.663161140E-3,1.225054078E-2
3.359466765E0,-7.989482954E-3,7.456851192E-3,1.544633508E-2
3.360644574E0,-1.278317347E-2,6.924218964E-3,1.544633508E-2
3.363533495E0,-1.491370238E-2,5.326322280E-4,1.491370238E-2
3.364748267E0,-1.864212751E-2,-8.522115648E-3,8.522115648E-3
3.367635457E0,-2.503371425E-2,-1.917476021E-2,4.261057824E-3
3.368911497E0,-2.290318534E-2,-2.077265643E-2,3.728425596E-3
3.371737649E0,-2.396845073E-2,-1.597896591E-2,5.326322280E-3
3.372952497E0,-1.810949668E-2,-5.326322280E-3,1.118527725E-2
3.375839957E0,-1.384843793E-2,5.326322280E-4,1.278317347E-2
3.377264344E0,-9.054748341E-3,3.728425596E-3,1.544633508E-2
3.379877495E0,-7.456851192E-3,3.728425596E-3,1.757686399E-2
3.381071074E0,-7.456851192E-3,-2.130528912E-3,1.384843793E-2
3.383945457E0,-9.054748341E-3,-9.054748341E-3,1.012001187E-2
3.385197151E0,-1.118527725E-2,-1.651159860E-2,6.924218964E-3
3.388048726E0,-1.012001187E-2,-2.024002373E-2,5.858954508E-3
3.389327728E0,-8.522115648E-3,-1.864212751E-2,5.858954508E-3
3.391947421E0,-5.858954508E-3,-1.225054078E-2,9.054748341E-3
3.393421190E0,-3.728425596E-3,-4.261057824E-3,1.065264456E-2
3.396236574E0,-1.065264456E-3,3.195793368E-3,1.651159860E-2
3.397777228E0,-1.597896684E-3,5.858954508E-3,1.597896591E-2
3.399847074E0,0.000000000E0,3.195793368E-3,1.544633508E-2
3.401493036E0,-4.261057824E-3,-6.924218964E-3,1.118527725E-2
3.403877767E0,-1.065264456E-2,-1.331580617E-2,8.522115648E-3
3.405655190E0,-1.384843793E-2,-1.810949668E-2,7.456851192E-3
3.408014844E0,-1.597896591E-2,-1.970739290E-2,6.391586736E-3
3.409888805E0,-1.651159860E-2,-1.438106969E-2,1.012001187E-2
3.412094997E0,-1.438106969E-2,-6.924218964E-3,1.012001187E-2
3.413810497E0,-1.278317347E-2,-1.065264456E-3,1.491370238E-2
3.416334651E0,-1.278317347E-2,3.728425596E-3,1.810949668E-2
3.418068959E0,-1.331580617E-2,2.663161140E-3,1.544633508E-2
3.420325651E0,-1.438106969E-2,-5.326322280E-3,1.491370238E-2
3.421935651E0,-1.704423130E-2,-1.171790902E-2,1.225054078E-2
3.424301959E0,-1.810949668E-2,-1.864212751E-2,6.924218964E-3
3.426002382E0,-1.917476021E-2,-1.544633508E-2,7.456851192E-3
3.428427421E0,-1.597896591E-2,-1.171790902E-2,1.065264456E-2
3.430097613E0,-1.118527725E-2,-6.391586736E-3,1.278317347E-2
3.432606267E0,-4.793690052E-3,1.065264456E-3,1.544633508E-2
3.434258997E0,-4.261057824E-3,6.391586736E-3,1.384843793E-2
3.436945536E0,-4.261057824E-3,2.663161140E-3,1.597896591E-2
3.438499228E0,-4.793690052E-3,-2.663161140E-3,1.491370238E-2
3.441166457E0,-5.858954508E-3,-1.225054078E-2,9.054748341E-3
3.442328228E0,-6.924218964E-3,-1.597896591E-2,9.054748341E-3
3.445233764E0,-9.054748341E-3,-1.704423130E-2,1.012001187E-2
3.446444151E0,-1.012001187E-2,-1.225054078E-2,1.118527725E-2
3.449336764E0,-6.391586736E-3,-6.391586736E-3,1.171790902E-2
3.450558920E0,-4.793690052E-3,0.000000000E0,1.651159860E-2
3.453440226E0,-4.793690052E-3,2.130528912E-3,1.757686399E-2
3.454651228E0,-5.326322280E-3,5.326322280E-3,1.810949668E-2
3.457543110E0,-5.858954508E-3,-5.326322280E-4,1.597896591E-2
3.459032574E0,-1.065264456E-2,-8.522115648E-3,1.384843793E-2
3.461601226E0,-1.171790902E-2,-1.278317347E-2,9.587380104E-3
3.462798382E0,-1.651159860E-2,-1.810949668E-2,1.171790902E-2
3.465669341E0,-1.225054078E-2,-1.544633508E-2,9.587380104E-3
3.466976805E0,-9.587380104E-3,-1.012001187E-2,1.225054078E-2
3.469772495E0,-9.054748341E-3,-4.793690052E-3,1.331580617E-2
3.471059959E0,-7.989482954E-3,1.065264456E-3,1.651159860E-2
3.473627651E0,-6.924218964E-3,4.261057824E-3,1.757686399E-2
3.475130882E0,-8.522115648E-3,-5.326322280E-4,1.651159860E-2
3.477965382E0,-1.012001187E-2,-7.989482954E-3,1.171790902E-2
3.479379920E0,-1.171790902E-2,-1.225054078E-2,1.171790902E-2
3.481554497E0,-1.438106969E-2,-1.491370238E-2,9.587380104E-3
3.483287959E0,-1.651159860E-2,-1.544633508E-2,1.225054078E-2
3.485765420E0,-1.384843793E-2,-9.054748341E-3,1.278317347E-2
3.487390844E0,-1.384843793E-2,-5.858954508E-3,1.278317347E-2
3.490195649E0,-1.118527725E-2,-1.065264456E-3,1.544633508E-2
3.491441651E0,-1.278317347E-2,2.663161140E-3,1.757686399E-2
3.493862459E0,-1.651159860E-2,0.000000000E0,1.597896591E-2
3.495585228E0,-1.491370238E-2,-3.728425596E-3,1.438106969E-2
3.498067651E0,-1.704423130E-2,-1.278317347E-2,1.278317347E-2
3.499845113E0,-1.704423130E-2,-1.651159860E-2,1.118527725E-2
3.502038113E0,-1.757686399E-2,-1.438106969E-2,1.065264456E-2
3.503678844E0,-1.597896591E-2,-1.438106969E-2,1.384843793E-2
3.506051613E0,-1.331580617E-2,-1.065264456E-2,1.544633508E-2
3.507776228E0,-9.054748341E-3,-4.261057824E-3,1.757686399E-2
3.510166651E0,-6.924218964E-3,-1.065264456E-3,1.970739290E-2
3.511862497E0,-6.924218964E-3,-1.597896684E-3,1.917476021E-2
3.514362767E0,-4.261057824E-3,-3.195793368E-3,1.597896591E-2
3.515975690E0,-6.924218964E-3,-9.054748341E-3,1.225054078E-2
3.518723036E0,-7.989482954E-3,-1.225054078E-2,1.278317347E-2
3.520338574E0,-7.989482954E-3,-1.438106969E-2,9.587380104E-3
3.522909726E0,-8.522115648E-3,-1.384843793E-2,1.012001187E-2
3.524127574E0,-6.924218964E-3,-9.054748341E-3,1.278317347E-2
3.526977726E0,-7.989482954E-3,-6.924218964E-3,1.597896591E-2
3.528238920E0,-5.858954508E-3,-2.130528912E-3,1.597896591E-2
3.531080033E0,-4.793690052E-3,-5.326322280E-4,1.597896591E-2
3.532324844E0,-5.326322280E-3,-1.597896684E-3,1.597896591E-2
3.535183149E0,-8.522115648E-3,-6.391586736E-3,1.491370238E-2
3.536531228E0,-1.171790902E-2,-1.544633508E-2,9.587380104E-3
3.539286264E0,-1.597896591E-2,-1.438106969E-2,1.118527725E-2
3.540732997E0,-1.491370238E-2,-1.384843793E-2,9.587380104E-3
3.543326072E0,-1.331580617E-2,-9.054748341E-3,1.225054078E-2
3.544546228E0,-1.225054078E-2,-7.456851192E-3,1.438106969E-2
3.547393764E0,-9.054748341E-3,-1.065264456E-3,1.491370238E-2
3.548620151E0,-1.118527725E-2,-3.728425596E-3,1.757686399E-2
3.551497225E0,-7.989482954E-3,-3.195793368E-3,1.704423130E-2
3.552808536E0,-9.054748341E-3,-7.989482954E-3,1.225054078E-2
3.555395036E0,-1.012001187E-2,-1.278317347E-2,1.012001187E-2
3.556859651E0,-9.587380104E-3,-1.438106969E-2,9.587380104E-3
3.559704225E0,-9.587380104E-3,-1.544633508E-2,8.522115648E-3
3.561149613E0,-7.989482954E-3,-1.171790902E-2,1.225054078E-2
3.563261420E0,-4.793690052E-3,-8.522115648E-3,1.491370238E-2
3.564964036E0,-4.261057824E-3,-2.663161140E-3,1.491370238E-2
3.567596459E0,-5.326322280E-4,1.597896684E-3,1.491370238E-2
3.569092997E0,-1.597896684E-3,-2.130528912E-3,1.757686399E-2
3.571483574E0,-4.793690052E-3,-3.195793368E-3,1.491370238E-2
3.573428074E0,-3.728425596E-3,-9.587380104E-3,1.278317347E-2
3.575570959E0,-7.456851192E-3,-1.491370238E-2,1.118527725E-2
3.577376959E0,-1.118527725E-2,-1.384843793E-2,9.054748341E-3
3.579830574E0,-1.118527725E-2,-1.171790902E-2,1.118527725E-2
3.581618228E0,-1.278317347E-2,-9.587380104E-3,1.118527725E-2
3.583746343E0,-1.012001187E-2,-4.261057824E-3,1.225054078E-2
3.585482305E0,-9.587380104E-3,-1.065264456E-3,1.438106969E-2
3.587760382E0,-1.012001187E-2,-2.130528912E-3,1.331580617E-2
3.589517420E0,-1.065264456E-2,-2.663161140E-3,1.384843793E-2
3.591901228E0,-1.118527725E-2,-5.858954508E-3,1.065264456E-2
3.593585728E0,-1.704423130E-2,-1.065264456E-2,8.522115648E-3
3.596059728E0,-1.544633508E-2,-1.384843793E-2,7.456851192E-3
3.597728613E0,-1.651159860E-2,-9.587380104E-3,9.587380104E-3
3.600529036E0,-1.331580617E-2,-5.326322280E-3,1.171790902E-2
3.602074151E0,-1.384843793E-2,-3.195793368E-3,1.118527725E-2
3.604600148E0,-8.522115648E-3,-1.065264456E-3,1.225054078E-2
3.605793536E0,-5.858954508E-3,5.326322280E-4,1.491370238E-2
3.608667187E0,-4.793690052E-3,-5.326322280E-4,1.171790902E-2
3.610085228E0,-6.391586736E-3,-4.261057824E-3,1.118527725E-2
3.612769648E0,-5.858954508E-3,-8.522115648E-3,1.012001187E-2
3.614038959E0,-7.989482954E-3,-9.587380104E-3,7.989482954E-3
3.616872841E0,-7.989482954E-3,-9.054748341E-3,8.522115648E-3
3.618133882E0,-4.261057824E-3,-3.728425596E-3,9.587380104E-3
3.620976187E0,-3.195793368E-3,1.065264456E-3,1.118527725E-2
3.622474420E0,-2.130528912E-3,1.597896684E-3,1.384843793E-2
3.625013918E0,-2.130528912E-3,7.456851192E-3,1.278317347E-2
3.626203843E0,-3.728425596E-3,4.793690052E-3,1.438106969E-2
3.629081533E0,-7.989482954E-3,5.326322280E-4,1.331580617E-2
3.630331651E0,-9.054748341E-3,-3.195793368E-3,1.278317347E-2
3.633184110E0,-1.065264456E-2,-5.858954508E-3,1.118527725E-2
3.634492843E0,-1.225054078E-2,-6.924218964E-3,9.054748341E-3
3.637067920E0,-1.331580617E-2,-4.261057824E-3,1.118527725E-2
3.638552690E0,-1.012001187E-2,1.597896684E-3,1.278317347E-2
3.641389264E0,-1.118527725E-2,3.195793368E-3,1.278317347E-2
3.643018997E0,-1.065264456E-2,3.195793368E-3,1.278317347E-2
3.644974113E0,-1.384843793E-2,4.261057824E-3,1.331580617E-2
3.646651497E0,-1.384843793E-2,-1.065264456E-3,1.225054078E-2
3.649051843E0,-9.587380104E-3,-5.326322280E-3,8.522115648E-3
3.650943690E0,-1.065264456E-2,-9.054748341E-3,7.456851192E-3
3.653205036E0,-7.989482954E-3,-1.171790902E-2,6.391586736E-3
3.654860843E0,-4.261057824E-3,-9.587380104E-3,4.793690052E-3
3.657239382E0,-1.065264456E-3,-4.793690052E-3,5.858954508E-3
3.658966805E0,4.261057824E-3,-2.130528912E-3,5.858954508E-3
3.661480420E0,5.326322280E-3,1.065264456E-3,6.924218964E-3
3.663245420E0,8.522115648E-3,0.000000000E0,4.261057824E-3
3.665386382E0,6.924218964E-3,-1.065264456E-3,3.728425596E-3
3.667077266E0,7.989482954E-3,-3.195793368E-3,2.663161140E-3
3.669491459E0,8.522115648E-3,-5.858954508E-3,2.130528912E-3
3.671169228E0,5.326322280E-3,-8.522115648E-3,2.130528912E-3
3.673537382E0,5.858954508E-3,-5.326322280E-3,1.597896684E-3
3.675264497E0,2.130528912E-3,-1.597896684E-3,3.195793368E-3
3.677753190E0,4.261057824E-3,-5.326322280E-4,6.391586736E-3
3.679447574E0,1.065264456E-3,4.793690052E-3,5.858954508E-3
3.682177036E0,-3.195793368E-3,2.663161140E-3,7.989482954E-3
3.683745805E0,-5.326322280E-3,5.326322280E-4,7.989482954E-3
3.686289956E0,-6.924218964E-3,-3.195793368E-3,4.793690052E-3
3.687531113E0,-9.587380104E-3,-7.456851192E-3,3.728425596E-3
3.690357494E0,-1.384843793E-2,-1.012001187E-2,5.326322280E-4
3.691615305E0,-1.597896591E-2,-8.522115648E-3,0.000000000E0
3.694459379E0,-1.438106969E-2,-4.261057824E-3,5.326322280E-4
3.695724574E0,-1.491370238E-2,1.597896684E-3,1.065264456E-3
3.698561686E0,-1.278317347E-2,3.728425596E-3,1.065264456E-3
3.699946728E0,-1.438106969E-2,2.130528912E-3,5.326322280E-4
3.702663571E0,-1.118527725E-2,1.065264456E-3,5.326322280E-4
3.704210036E0,-1.012001187E-2,-4.793690052E-3,-5.326322280E-4
3.706721302E0,-1.438106969E-2,-4.793690052E-3,-1.065264456E-3
3.707906997E0,-1.012001187E-2,-1.065264456E-2,-5.326322280E-4
3.710788379E0,-6.924218964E-3,-1.012001187E-2,-1.597896684E-3
3.712027613E0,0.000000000E0,-6.924218964E-3,0.000000000E0
3.714890302E0,5.326322280E-3,-2.130528912E-3,3.195793368E-3
3.716172805E0,6.924218964E-3,3.728425596E-3,2.130528912E-3
3.718786920E0,1.331580617E-2,4.261057824E-3,5.326322280E-4
3.720253420E0,1.331580617E-2,3.195793368E-3,5.326322280E-4
3.723095840E0,1.438106969E-2,3.728425596E-3,5.326322280E-4
3.724567151E0,1.491370238E-2,-2.130528912E-3,-1.597896684E-3
3.726711420E0,1.597896591E-2,-6.391586736E-3,-1.597896684E-3
3.728392613E0,1.651159860E-2,-7.456851192E-3,-1.065264456E-3
3.730723959E0,1.491370238E-2,-4.261057824E-3,-1.065264456E-3
3.732439882E0,1.491370238E-2,-1.065264456E-3,-1.597896684E-3
3.735310071E0,1.171790902E-2,4.261057824E-3,-5.326322280E-4
3.736690882E0,1.012001187E-2,6.391586736E-3,-5.326322280E-4
3.739142151E0,5.326322280E-3,2.663161140E-3,-2.130528912E-3
3.740738843E0,2.663161140E-3,3.195793368E-3,-3.195793368E-3
3.743174959E0,5.326322280E-4,2.663161140E-3,-7.456851192E-3
3.744947190E0,-6.924218964E-3,-1.065264456E-3,-5.326322280E-3
3.747158997E0,-6.924218964E-3,-1.597896684E-3,-9.054748341E-3
3.748788805E0,-9.054748341E-3,-2.130528912E-3,-8.522115648E-3
3.751189305E0,-7.456851192E-3,2.130528912E-3,-6.924218964E-3
3.752908690E0,-7.456851192E-3,4.261057824E-3,-4.793690052E-3
3.755272997E0,-3.728425596E-3,5.858954508E-3,-2.130528912E-3
3.757053728E0,-3.728425596E-3,6.924218964E-3,-3.728425596E-3
3.759525920E0,-2.130528912E-3,4.793690052E-3,-3.728425596E-3
3.761116766E0,1.597896684E-3,2.663161140E-3,-6.391586736E-3
3.763870690E0,5.326322280E-4,1.065264456E-3,-6.924218964E-3
3.765498266E0,5.858954508E-3,-1.065264456E-3,-8.522115648E-3
3.768022225E0,7.456851192E-3,-2.663161140E-3,-5.858954508E-3
3.769224074E0,1.118527725E-2,1.065264456E-3,-6.391586736E-3
3.772089955E0,1.384843793E-2,3.195793368E-3,-1.065264456E-3
3.773407613E0,1.491370238E-2,6.391586736E-3,-1.065264456E-3
3.776192763E0,1.544633508E-2,7.989482954E-3,-1.597896684E-3
3.777442343E0,1.278317347E-2,4.261057824E-3,-1.597896684E-3
3.780295532E0,7.456851192E-3,2.663161140E-3,-2.663161140E-3
3.781621343E0,6.924218964E-3,-5.326322280E-4,-4.793690052E-3
3.784398148E0,4.793690052E-3,-3.195793368E-3,-4.793690052E-3
3.785864997E0,3.728425596E-3,-2.130528912E-3,-5.326322280E-3
3.788435955E0,1.597896684E-3,-2.130528912E-3,-5.858954508E-3
3.789664920E0,1.065264456E-3,5.858954508E-3,-2.663161140E-3
3.792503955E0,1.065264456E-3,5.858954508E-3,-2.663161140E-3
3.793819920E0,2.130528912E-3,5.858954508E-3,-5.326322280E-4
3.796606340E0,1.065264456E-3,5.326322280E-3,-2.663161140E-3
3.797904113E0,-3.728425596E-3,3.728425596E-3,-4.261057824E-3
3.800685536E0,-6.924218964E-3,1.597896684E-3,-9.587380104E-3
3.801987151E0,-6.924218964E-3,-2.130528912E-3,-7.989482954E-3
3.804811071E0,-6.391586736E-3,-5.326322280E-3,-7.989482954E-3
3.806280266E0,-4.261057824E-3,-4.261057824E-3,-9.054748341E-3
3.808421766E0,-2.663161140E-3,-1.065264456E-3,-9.587380104E-3
3.810156689E0,1.597896684E-3,2.130528912E-3,-6.391586736E-3
3.812764228E0,4.793690052E-3,2.663161140E-3,-5.326322280E-3
3.814156689E0,5.326322280E-3,1.597896684E-3,-3.195793368E-3
3.816812920E0,7.989482954E-3,2.130528912E-3,-5.858954508E-3
3.818347613E0,8.522115648E-3,-1.065264456E-3,-6.391586736E-3
3.820749189E0,1.278317347E-2,-3.728425596E-3,-5.858954508E-3
3.822431882E0,1.438106969E-2,-6.391586736E-3,-7.989482954E-3
3.824866613E0,1.438106969E-2,-5.326322280E-3,-7.456851192E-3
3.826776536E0,1.651159860E-2,1.065264456E-3,-5.326322280E-3
3.828824805E0,1.704423130E-2,3.195793368E-3,-2.663161140E-3
3.830510613E0,2.024002373E-2,5.858954508E-3,-2.663161140E-3
3.832879266E0,2.024002373E-2,5.858954508E-3,-1.597896684E-3
3.834604536E0,1.917476021E-2,4.793690052E-3,-2.130528912E-3
3.837040074E0,1.384843793E-2,5.326322280E-3,-4.261057824E-3
3.838791728E0,9.587380104E-3,-5.326322280E-4,-5.858954508E-3
3.841435151E0,6.391586736E-3,5.326322280E-4,-7.456851192E-3
3.842763382E0,2.130528912E-3,-1.597896684E-3,-9.587380104E-3
3.845497997E0,1.065264456E-3,1.065264456E-3,-8.522115648E-3
3.847058151E0,-2.130528912E-3,2.663161140E-3,-6.391586736E-3
3.849657494E0,-5.326322280E-3,5.326322280E-3,-5.858954508E-3
3.850879305E0,-4.793690052E-3,4.793690052E-3,-5.326322280E-3
3.853724494E0,-8.522115648E-3,5.858954508E-3,-7.456851192E-3
3.854992651E0,-1.012001187E-2,0.000000000E0,-9.054748341E-3
3.857827686E0,-1.171790902E-2,5.326322280E-4,-1.065264456E-2
3.859101920E0,-8.522115648E-3,-1.065264456E-3,-1.065264456E-2
3.861930686E0,-1.118527725E-2,-2.130528912E-3,-7.456851192E-3
3.863177728E0,-7.456851192E-3,-1.065264456E-3,-7.989482954E-3
3.866033109E0,-4.793690052E-3,0.000000000E0,-7.456851192E-3
3.867559113E0,2.130528912E-3,2.663161140E-3,-5.858954508E-3
3.870070224E0,6.391586736E-3,2.663161140E-3,-6.924218964E-3
3.871275382E0,1.171790902E-2,4.261057824E-3,-5.326322280E-3
3.874136763E0,1.384843793E-2,4.793690052E-3,-5.326322280E-3
3.875391189E0,1.757686399E-2,6.391586736E-3,-6.924218964E-3
3.878239032E0,2.130528912E-2,2.663161140E-3,-6.924218964E-3
3.879563459E0,2.024002373E-2,5.326322280E-4,-6.924218964E-3
3.882213228E0,2.396845073E-2,5.326322280E-4,-8.522115648E-3
3.883563151E0,2.237055451E-2,5.326322280E-4,-6.924218964E-3
3.886444224E0,2.396845073E-2,4.261057824E-3,-6.924218964E-3
3.888057920E0,2.503371425E-2,5.326322280E-3,-6.924218964E-3
3.890077997E0,1.917476021E-2,6.391586736E-3,-6.924218964E-3
3.891865805E0,1.438106969E-2,4.793690052E-3,-5.326322280E-3
3.894127189E0,1.012001187E-2,1.597896684E-3,-9.054748341E-3
3.895924651E0,5.858954508E-3,2.130528912E-3,-9.054748341E-3
3.898214305E0,-5.326322280E-4,0.000000000E0,-8.522115648E-3
3.900003459E0,-2.663161140E-3,-2.663161140E-3,-9.587380104E-3
3.902394459E0,-6.391586736E-3,5.326322280E-4,-1.065264456E-2
3.904026036E0,-8.522115648E-3,-5.326322280E-4,-9.587380104E-3
3.906643882E0,-7.989482954E-3,1.597896684E-3,-7.456851192E-3
3.908306805E0,-5.858954508E-3,1.065264456E-3,-5.326322280E-3
3.910455651E0,-6.391586736E-3,0.000000000E0,-4.261057824E-3
3.912165112E0,-4.261057824E-3,-1.065264456E-3,-7.989482954E-3
3.914486689E0,5.326322280E-4,-5.326322280E-4,-6.924218964E-3
3.916224343E0,3.195793368E-3,-4.261057824E-3,-7.989482954E-3
3.918675074E0,6.924218964E-3,5.326322280E-4,-9.054748341E-3
3.920342536E0,1.225054078E-2,5.326322280E-4,-1.012001187E-2
3.922827766E0,1.118527725E-2,1.597896684E-3,-1.012001187E-2
3.924512266E0,1.757686399E-2,4.261057824E-3,-6.924218964E-3
3.927226228E0,1.970739290E-2,5.326322280E-3,-6.924218964E-3
3.928711651E0,2.183792181E-2,5.326322280E-3,-8.522115648E-3
3.931350878E0,2.130528912E-2,3.728425596E-3,-8.522115648E-3
3.932526305E0,1.864212751E-2,5.326322280E-3,-8.522115648E-3
3.935419801E0,1.491370238E-2,2.130528912E-3,-8.522115648E-3
3.936672112E0,1.065264456E-2,2.130528912E-3,-7.989482954E-3
3.939523032E0,7.456851192E-3,0.000000000E0,-7.989482954E-3
3.940720497E0,4.793690052E-3,-1.065264456E-3,-7.989482954E-3
3.943625955E0,2.130528912E-3,0.000000000E0,-6.391586736E-3
3.944822343E0,0.000000000E0,2.663161140E-3,-5.858954508E-3
3.947729147E0,-3.195793368E-3,2.663161140E-3,-5.858954508E-3
3.949201305E0,-2.663161140E-3,4.793690052E-3,-4.793690052E-3
3.951786839E0,-4.261057824E-3,1.065264456E-3,-4.793690052E-3
3.952965343E0,-5.326322280E-3,-1.597896684E-3,-4.261057824E-3
3.955854724E0,-6.391586736E-3,-5.326322280E-4,-4.261057824E-3
3.957057959E0,-7.456851192E-3,-2.130528912E-3,-5.326322280E-3
3.959957762E0,-6.924218964E-3,-1.065264456E-3,-5.858954508E-3
3.961166920E0,-2.130528912E-3,2.663161140E-3,-5.326322280E-3
3.963839882E0,1.065264456E-3,2.130528912E-3,-5.326322280E-3
3.965448266E0,4.261057824E-3,1.065264456E-3,-3.195793368E-3
3.968164339E0,4.793690052E-3,2.130528912E-3,-1.597896684E-3
3.969615074E0,5.858954508E-3,2.663161140E-3,-3.728425596E-3
3.971728189E0,8.522115648E-3,1.065264456E-3,-3.195793368E-3
3.973412536E0,6.924218964E-3,-1.065264456E-3,-4.261057824E-3
3.975780266E0,7.989482954E-3,-2.663161140E-3,-5.326322280E-3
3.977490843E0,5.858954508E-3,-4.261057824E-3,-4.793690052E-3
3.980381532E0,3.728425596E-3,-6.391586736E-3,-2.663161140E-3
3.981674382E0,4.261057824E-3,-2.130528912E-3,-5.326322280E-4
3.984152151E0,4.793690052E-3,-4.261057824E-3,-5.326322280E-4
3.985861382E0,6.924218964E-3,-1.065264456E-3,5.326322280E-4
3.988247651E0,6.924218964E-3,-3.195793368E-3,5.326322280E-4
3.989997651E0,2.663161140E-3,-3.195793368E-3,5.326322280E-4
3.992154882E0,2.130528912E-3,-3.195793368E-3,-5.326322280E-4
3.993834420E0,1.065264456E-3,-6.391586736E-3,5.326322280E-4
3.996242420E0,1.065264456E-3,-5.326322280E-3,0.000000000E0
3.997994343E0,-1.597896684E-3,-7.989482954E-3,-5.326322280E-4
4.000360420E0,-1.065264456E-3,-9.054748341E-3,-1.065264456E-3
4.002065997E0,-4.261057824E-3,-4.261057824E-3,-1.065264456E-3
4.004612266E0,-1.597896684E-3,-3.195793368E-3,-1.065264456E-3
4.006166805E0,-5.326322280E-3,-5.326322280E-3,-1.597896684E-3
4.008996420E0,-5.326322280E-3,-4.261057824E-3,0.000000000E0
4.010527728E0,-6.924218964E-3,-9.054748341E-3,-2.663161140E-3
4.013098955E0,-5.858954508E-3,-9.054748341E-3,-2.663161140E-3
4.014303574E0,-6.391586736E-3,-1.278317347E-2,-3.195793368E-3
4.017166993E0,-5.858954508E-3,-1.384843793E-2,-5.326322280E-3
4.018545112E0,-4.793690052E-3,-1.278317347E-2,-4.261057824E-3
4.021270301E0,-5.858954508E-3,-1.012001187E-2,-3.728425596E-3
4.022537997E0,-5.326322280E-4,-7.989482954E-3,-3.728425596E-3
4.025373070E0,0.000000000E0,-8.522115648E-3,-3.728425596E-3
4.026585189E0,0.000000000E0,-1.012001187E-2,-2.130528912E-3
4.029475378E0,2.663161140E-3,-9.054748341E-3,-2.663161140E-3
4.030883728E0,5.858954508E-3,-1.544633508E-2,-2.130528912E-3
4.033511993E0,6.391586736E-3,-1.810949668E-2,0.000000000E0
4.034789805E0,8.522115648E-3,-1.810949668E-2,-2.130528912E-3
4.037580416E0,8.522115648E-3,-1.651159860E-2,-1.065264456E-3
4.038769151E0,5.858954508E-3,-1.331580617E-2,0.000000000E0
4.041683031E0,4.261057824E-3,-1.331580617E-2,-1.065264456E-3
